{
    "entry": [
        {
            "request": {
                "method": "PUT",
                "url": "Patient/nhs-1157764"
            },
            "resource": {
                "active": true,
                "address": [
                    {
                        "city": "Tulsa",
                        "country": "USA",
                        "line": [
                            "36 South St"
                        ],
                        "postalCode": "74108",
                        "state": "OK",
                        "use": "home"
                    }
                ],
                "birthDate": "1949-11-04",
                "gender": "female",
                "generalPractitioner": [
                    {
                        "reference": "Practitioner/nhs-Practitioner-7880378"
                    }
                ],
                "id": "nhs-1157764",
                "identifier": [
                    {
                        "system": "http://hospital.smarthealthit.org",
                        "type": {
                            "coding": [
                                {
                                    "code": "MR",
                                    "display": "Medical Record Number",
                                    "system": "http://hl7.org/fhir/v2/0203"
                                }
                            ],
                            "text": "Medical Record Number"
                        },
                        "use": "official",
                        "value": "nhs-1157764"
                    }
                ],
                "name": [
                    {
                        "family": "Hughes",
                        "given": [
                            "Carol",
                            "U"
                        ],
                        "use": "official"
                    }
                ],
                "resourceType": "Patient",
                "telecom": [
                    {
                        "system": "phone",
                        "use": "mobile",
                        "value": "800-971-5389"
                    },
                    {
                        "system": "email",
                        "value": "carol.hughes@example.com"
                    }
                ],
                "text": {
                    "div": "<div xmlns=\"http://www.w3.org/1999/xhtml\">Carol Hughes</div>",
                    "status": "generated"
                },
                "meta": {
                    "tag": [
                        {
                            "system": "https://smarthealthit.org/tags",
                            "code": "nhs"
                        }
                    ]
                }
            },
            "fullUrl": "/Patient/nhs-1157764"
        },
        {
            "request": {
                "method": "PUT",
                "url": "Observation/nhs-1157764-gestage"
            },
            "resource": {
                "category": [
                    {
                        "coding": [
                            {
                                "code": "exam",
                                "display": "Exam",
                                "system": "http://hl7.org/fhir/observation-category"
                            }
                        ],
                        "text": "Exam"
                    }
                ],
                "code": {
                    "coding": [
                        {
                            "code": "18185-9",
                            "display": "Gestational age at birth",
                            "system": "http://loinc.org"
                        }
                    ],
                    "text": "Gestational age at birth"
                },
                "effectiveDateTime": "1949-11-04",
                "id": "nhs-1157764-gestage",
                "identifier": [
                    {
                        "system": "http://www.bmc.nl/zorgportal/identifiers/observations",
                        "use": "official",
                        "value": "nhs-1157764-gestage"
                    }
                ],
                "performer": [
                    {
                        "reference": "Practitioner/nhs-Practitioner-7880378"
                    }
                ],
                "resourceType": "Observation",
                "status": "unknown",
                "subject": {
                    "reference": "Patient/nhs-1157764"
                },
                "text": {
                    "div": "<div xmlns=\"http://www.w3.org/1999/xhtml\">1949-11-04: Gestational age at birth = 38.3 weeks</div>",
                    "status": "generated"
                },
                "valueQuantity": {
                    "code": "wk",
                    "system": "http://unitsofmeasure.org",
                    "unit": "weeks",
                    "value": 38.3
                },
                "meta": {
                    "tag": [
                        {
                            "system": "https://smarthealthit.org/tags",
                            "code": "nhs"
                        }
                    ]
                }
            },
            "fullUrl": "/Observation/nhs-1157764-gestage"
        },
        {
            "request": {
                "method": "PUT",
                "url": "Observation/nhs-1842-lab"
            },
            "resource": {
                "category": [
                    {
                        "coding": [
                            {
                                "code": "laboratory",
                                "display": "Laboratory",
                                "system": "http://hl7.org/fhir/observation-category"
                            }
                        ],
                        "text": "Laboratory"
                    }
                ],
                "code": {
                    "coding": [
                        {
                            "code": "13457-7",
                            "display": "LDLc SerPl Calc-mCnc",
                            "system": "http://loinc.org"
                        }
                    ],
                    "text": "LDLc SerPl Calc-mCnc"
                },
                "effectiveDateTime": "2004-07-23",
                "id": "nhs-1842-lab",
                "identifier": [
                    {
                        "system": "http://www.bmc.nl/zorgportal/identifiers/observations",
                        "use": "official",
                        "value": "nhs-1842-lab"
                    }
                ],
                "performer": [
                    {
                        "reference": "Practitioner/nhs-Practitioner-7880378"
                    }
                ],
                "referenceRange": [
                    {
                        "high": {
                            "code": "mg/dL",
                            "system": "http://unitsofmeasure.org",
                            "unit": "mg/dL",
                            "value": 100
                        },
                        "low": {
                            "code": "mg/dL",
                            "system": "http://unitsofmeasure.org",
                            "unit": "mg/dL",
                            "value": 0
                        },
                        "type": {
                            "coding": [
                                {
                                    "code": "normal",
                                    "display": "Normal Range",
                                    "system": "http://hl7.org/fhir/referencerange-meaning"
                                }
                            ],
                            "text": "Normal Range"
                        }
                    }
                ],
                "resourceType": "Observation",
                "status": "unknown",
                "subject": {
                    "reference": "Patient/nhs-1157764"
                },
                "text": {
                    "div": "<div xmlns=\"http://www.w3.org/1999/xhtml\">2004-07-23: LDLc SerPl Calc-mCnc = 101 mg/dL</div>",
                    "status": "generated"
                },
                "valueQuantity": {
                    "code": "mg/dL",
                    "system": "http://unitsofmeasure.org",
                    "unit": "mg/dL",
                    "value": 101
                },
                "meta": {
                    "tag": [
                        {
                            "system": "https://smarthealthit.org/tags",
                            "code": "nhs"
                        }
                    ]
                }
            },
            "fullUrl": "/Observation/nhs-1842-lab"
        },
        {
            "request": {
                "method": "PUT",
                "url": "Observation/nhs-1843-lab"
            },
            "resource": {
                "category": [
                    {
                        "coding": [
                            {
                                "code": "laboratory",
                                "display": "Laboratory",
                                "system": "http://hl7.org/fhir/observation-category"
                            }
                        ],
                        "text": "Laboratory"
                    }
                ],
                "code": {
                    "coding": [
                        {
                            "code": "11580-8",
                            "display": "TSH SerPl DL<=0.005 mU/L-aCnc",
                            "system": "http://loinc.org"
                        }
                    ],
                    "text": "TSH SerPl DL<=0.005 mU/L-aCnc"
                },
                "effectiveDateTime": "2004-07-23",
                "id": "nhs-1843-lab",
                "identifier": [
                    {
                        "system": "http://www.bmc.nl/zorgportal/identifiers/observations",
                        "use": "official",
                        "value": "nhs-1843-lab"
                    }
                ],
                "performer": [
                    {
                        "reference": "Practitioner/nhs-Practitioner-7880378"
                    }
                ],
                "referenceRange": [
                    {
                        "high": {
                            "code": "mcU/mL",
                            "system": "http://unitsofmeasure.org",
                            "unit": "mcU/mL",
                            "value": 4.2
                        },
                        "low": {
                            "code": "mcU/mL",
                            "system": "http://unitsofmeasure.org",
                            "unit": "mcU/mL",
                            "value": 0.4
                        },
                        "type": {
                            "coding": [
                                {
                                    "code": "normal",
                                    "display": "Normal Range",
                                    "system": "http://hl7.org/fhir/referencerange-meaning"
                                }
                            ],
                            "text": "Normal Range"
                        }
                    }
                ],
                "resourceType": "Observation",
                "status": "unknown",
                "subject": {
                    "reference": "Patient/nhs-1157764"
                },
                "text": {
                    "div": "<div xmlns=\"http://www.w3.org/1999/xhtml\">2004-07-23: TSH SerPl DL&lt;=0.005 mU/L-aCnc = 3.548 mcU/mL</div>",
                    "status": "generated"
                },
                "valueQuantity": {
                    "code": "mcU/mL",
                    "system": "http://unitsofmeasure.org",
                    "unit": "mcU/mL",
                    "value": 3.548
                },
                "meta": {
                    "tag": [
                        {
                            "system": "https://smarthealthit.org/tags",
                            "code": "nhs"
                        }
                    ]
                }
            },
            "fullUrl": "/Observation/nhs-1843-lab"
        },
        {
            "request": {
                "method": "PUT",
                "url": "Observation/nhs-1844-lab"
            },
            "resource": {
                "category": [
                    {
                        "coding": [
                            {
                                "code": "laboratory",
                                "display": "Laboratory",
                                "system": "http://hl7.org/fhir/observation-category"
                            }
                        ],
                        "text": "Laboratory"
                    }
                ],
                "code": {
                    "coding": [
                        {
                            "code": "2085-9",
                            "display": "HDLc SerPl-mCnc",
                            "system": "http://loinc.org"
                        }
                    ],
                    "text": "HDLc SerPl-mCnc"
                },
                "effectiveDateTime": "2004-07-23",
                "id": "nhs-1844-lab",
                "identifier": [
                    {
                        "system": "http://www.bmc.nl/zorgportal/identifiers/observations",
                        "use": "official",
                        "value": "nhs-1844-lab"
                    }
                ],
                "performer": [
                    {
                        "reference": "Practitioner/nhs-Practitioner-7880378"
                    }
                ],
                "referenceRange": [
                    {
                        "high": {
                            "code": "mg/dL",
                            "system": "http://unitsofmeasure.org",
                            "unit": "mg/dL",
                            "value": 0
                        },
                        "low": {
                            "code": "mg/dL",
                            "system": "http://unitsofmeasure.org",
                            "unit": "mg/dL",
                            "value": 0
                        },
                        "type": {
                            "coding": [
                                {
                                    "code": "normal",
                                    "display": "Normal Range",
                                    "system": "http://hl7.org/fhir/referencerange-meaning"
                                }
                            ],
                            "text": "Normal Range"
                        }
                    }
                ],
                "resourceType": "Observation",
                "status": "unknown",
                "subject": {
                    "reference": "Patient/nhs-1157764"
                },
                "text": {
                    "div": "<div xmlns=\"http://www.w3.org/1999/xhtml\">2004-07-23: HDLc SerPl-mCnc = 66 mg/dL</div>",
                    "status": "generated"
                },
                "valueQuantity": {
                    "code": "mg/dL",
                    "system": "http://unitsofmeasure.org",
                    "unit": "mg/dL",
                    "value": 66
                },
                "meta": {
                    "tag": [
                        {
                            "system": "https://smarthealthit.org/tags",
                            "code": "nhs"
                        }
                    ]
                }
            },
            "fullUrl": "/Observation/nhs-1844-lab"
        },
        {
            "request": {
                "method": "PUT",
                "url": "Observation/nhs-1845-lab"
            },
            "resource": {
                "category": [
                    {
                        "coding": [
                            {
                                "code": "laboratory",
                                "display": "Laboratory",
                                "system": "http://hl7.org/fhir/observation-category"
                            }
                        ],
                        "text": "Laboratory"
                    }
                ],
                "code": {
                    "coding": [
                        {
                            "code": "2571-8",
                            "display": "Trigl SerPl-mCnc",
                            "system": "http://loinc.org"
                        }
                    ],
                    "text": "Trigl SerPl-mCnc"
                },
                "effectiveDateTime": "2004-07-23",
                "id": "nhs-1845-lab",
                "identifier": [
                    {
                        "system": "http://www.bmc.nl/zorgportal/identifiers/observations",
                        "use": "official",
                        "value": "nhs-1845-lab"
                    }
                ],
                "performer": [
                    {
                        "reference": "Practitioner/nhs-Practitioner-7880378"
                    }
                ],
                "referenceRange": [
                    {
                        "high": {
                            "code": "mg/dL",
                            "system": "http://unitsofmeasure.org",
                            "unit": "mg/dL",
                            "value": 150
                        },
                        "low": {
                            "code": "mg/dL",
                            "system": "http://unitsofmeasure.org",
                            "unit": "mg/dL",
                            "value": 0
                        },
                        "type": {
                            "coding": [
                                {
                                    "code": "normal",
                                    "display": "Normal Range",
                                    "system": "http://hl7.org/fhir/referencerange-meaning"
                                }
                            ],
                            "text": "Normal Range"
                        }
                    }
                ],
                "resourceType": "Observation",
                "status": "unknown",
                "subject": {
                    "reference": "Patient/nhs-1157764"
                },
                "text": {
                    "div": "<div xmlns=\"http://www.w3.org/1999/xhtml\">2004-07-23: Trigl SerPl-mCnc = 72 mg/dL</div>",
                    "status": "generated"
                },
                "valueQuantity": {
                    "code": "mg/dL",
                    "system": "http://unitsofmeasure.org",
                    "unit": "mg/dL",
                    "value": 72
                },
                "meta": {
                    "tag": [
                        {
                            "system": "https://smarthealthit.org/tags",
                            "code": "nhs"
                        }
                    ]
                }
            },
            "fullUrl": "/Observation/nhs-1845-lab"
        },
        {
            "request": {
                "method": "PUT",
                "url": "Observation/nhs-1846-lab"
            },
            "resource": {
                "category": [
                    {
                        "coding": [
                            {
                                "code": "laboratory",
                                "display": "Laboratory",
                                "system": "http://hl7.org/fhir/observation-category"
                            }
                        ],
                        "text": "Laboratory"
                    }
                ],
                "code": {
                    "coding": [
                        {
                            "code": "2093-3",
                            "display": "Cholest SerPl-mCnc",
                            "system": "http://loinc.org"
                        }
                    ],
                    "text": "Cholest SerPl-mCnc"
                },
                "effectiveDateTime": "2004-07-23",
                "id": "nhs-1846-lab",
                "identifier": [
                    {
                        "system": "http://www.bmc.nl/zorgportal/identifiers/observations",
                        "use": "official",
                        "value": "nhs-1846-lab"
                    }
                ],
                "performer": [
                    {
                        "reference": "Practitioner/nhs-Practitioner-7880378"
                    }
                ],
                "referenceRange": [
                    {
                        "high": {
                            "code": "mg/dL",
                            "system": "http://unitsofmeasure.org",
                            "unit": "mg/dL",
                            "value": 200
                        },
                        "low": {
                            "code": "mg/dL",
                            "system": "http://unitsofmeasure.org",
                            "unit": "mg/dL",
                            "value": 0
                        },
                        "type": {
                            "coding": [
                                {
                                    "code": "normal",
                                    "display": "Normal Range",
                                    "system": "http://hl7.org/fhir/referencerange-meaning"
                                }
                            ],
                            "text": "Normal Range"
                        }
                    }
                ],
                "resourceType": "Observation",
                "status": "unknown",
                "subject": {
                    "reference": "Patient/nhs-1157764"
                },
                "text": {
                    "div": "<div xmlns=\"http://www.w3.org/1999/xhtml\">2004-07-23: Cholest SerPl-mCnc = 181 mg/dL</div>",
                    "status": "generated"
                },
                "valueQuantity": {
                    "code": "mg/dL",
                    "system": "http://unitsofmeasure.org",
                    "unit": "mg/dL",
                    "value": 181
                },
                "meta": {
                    "tag": [
                        {
                            "system": "https://smarthealthit.org/tags",
                            "code": "nhs"
                        }
                    ]
                }
            },
            "fullUrl": "/Observation/nhs-1846-lab"
        },
        {
            "request": {
                "method": "PUT",
                "url": "Observation/nhs-1847-lab"
            },
            "resource": {
                "category": [
                    {
                        "coding": [
                            {
                                "code": "laboratory",
                                "display": "Laboratory",
                                "system": "http://hl7.org/fhir/observation-category"
                            }
                        ],
                        "text": "Laboratory"
                    }
                ],
                "code": {
                    "coding": [
                        {
                            "code": "5803-2",
                            "display": "pH Ur Strip",
                            "system": "http://loinc.org"
                        }
                    ],
                    "text": "pH Ur Strip"
                },
                "effectiveDateTime": "2006-10-30",
                "id": "nhs-1847-lab",
                "identifier": [
                    {
                        "system": "http://www.bmc.nl/zorgportal/identifiers/observations",
                        "use": "official",
                        "value": "nhs-1847-lab"
                    }
                ],
                "performer": [
                    {
                        "reference": "Practitioner/nhs-Practitioner-7880378"
                    }
                ],
                "referenceRange": [
                    {
                        "high": {
                            "code": "[pH]",
                            "system": "http://unitsofmeasure.org",
                            "unit": "[pH]",
                            "value": 8
                        },
                        "low": {
                            "code": "[pH]",
                            "system": "http://unitsofmeasure.org",
                            "unit": "[pH]",
                            "value": 5
                        },
                        "type": {
                            "coding": [
                                {
                                    "code": "normal",
                                    "display": "Normal Range",
                                    "system": "http://hl7.org/fhir/referencerange-meaning"
                                }
                            ],
                            "text": "Normal Range"
                        }
                    }
                ],
                "resourceType": "Observation",
                "status": "unknown",
                "subject": {
                    "reference": "Patient/nhs-1157764"
                },
                "text": {
                    "div": "<div xmlns=\"http://www.w3.org/1999/xhtml\">2006-10-30: pH Ur Strip = 5 [pH]</div>",
                    "status": "generated"
                },
                "valueQuantity": {
                    "code": "[pH]",
                    "system": "http://unitsofmeasure.org",
                    "unit": "[pH]",
                    "value": 5
                },
                "meta": {
                    "tag": [
                        {
                            "system": "https://smarthealthit.org/tags",
                            "code": "nhs"
                        }
                    ]
                }
            },
            "fullUrl": "/Observation/nhs-1847-lab"
        },
        {
            "request": {
                "method": "PUT",
                "url": "Observation/nhs-1848-lab"
            },
            "resource": {
                "category": [
                    {
                        "coding": [
                            {
                                "code": "laboratory",
                                "display": "Laboratory",
                                "system": "http://hl7.org/fhir/observation-category"
                            }
                        ],
                        "text": "Laboratory"
                    }
                ],
                "code": {
                    "coding": [
                        {
                            "code": "5804-0",
                            "display": "Prot Ur Strip-mCnc",
                            "system": "http://loinc.org"
                        }
                    ],
                    "text": "Prot Ur Strip-mCnc"
                },
                "effectiveDateTime": "2006-10-30",
                "id": "nhs-1848-lab",
                "identifier": [
                    {
                        "system": "http://www.bmc.nl/zorgportal/identifiers/observations",
                        "use": "official",
                        "value": "nhs-1848-lab"
                    }
                ],
                "performer": [
                    {
                        "reference": "Practitioner/nhs-Practitioner-7880378"
                    }
                ],
                "referenceRange": [
                    {
                        "high": {
                            "code": "mg/dL",
                            "system": "http://unitsofmeasure.org",
                            "unit": "mg/dL",
                            "value": 0
                        },
                        "low": {
                            "code": "mg/dL",
                            "system": "http://unitsofmeasure.org",
                            "unit": "mg/dL",
                            "value": 0
                        },
                        "type": {
                            "coding": [
                                {
                                    "code": "normal",
                                    "display": "Normal Range",
                                    "system": "http://hl7.org/fhir/referencerange-meaning"
                                }
                            ],
                            "text": "Normal Range"
                        }
                    }
                ],
                "resourceType": "Observation",
                "status": "unknown",
                "subject": {
                    "reference": "Patient/nhs-1157764"
                },
                "text": {
                    "div": "<div xmlns=\"http://www.w3.org/1999/xhtml\">2006-10-30: Prot Ur Strip-mCnc = 0 mg/dL</div>",
                    "status": "generated"
                },
                "valueQuantity": {
                    "code": "mg/dL",
                    "system": "http://unitsofmeasure.org",
                    "unit": "mg/dL",
                    "value": 0
                },
                "meta": {
                    "tag": [
                        {
                            "system": "https://smarthealthit.org/tags",
                            "code": "nhs"
                        }
                    ]
                }
            },
            "fullUrl": "/Observation/nhs-1848-lab"
        },
        {
            "request": {
                "method": "PUT",
                "url": "Observation/nhs-1849-lab"
            },
            "resource": {
                "category": [
                    {
                        "coding": [
                            {
                                "code": "laboratory",
                                "display": "Laboratory",
                                "system": "http://hl7.org/fhir/observation-category"
                            }
                        ],
                        "text": "Laboratory"
                    }
                ],
                "code": {
                    "coding": [
                        {
                            "code": "13945-1",
                            "display": "RBC #/area UrnS HPF",
                            "system": "http://loinc.org"
                        }
                    ],
                    "text": "RBC #/area UrnS HPF"
                },
                "effectiveDateTime": "2006-10-30",
                "id": "nhs-1849-lab",
                "identifier": [
                    {
                        "system": "http://www.bmc.nl/zorgportal/identifiers/observations",
                        "use": "official",
                        "value": "nhs-1849-lab"
                    }
                ],
                "performer": [
                    {
                        "reference": "Practitioner/nhs-Practitioner-7880378"
                    }
                ],
                "referenceRange": [
                    {
                        "high": {
                            "code": "/[HPF]",
                            "system": "http://unitsofmeasure.org",
                            "unit": "/[HPF]",
                            "value": 2
                        },
                        "low": {
                            "code": "/[HPF]",
                            "system": "http://unitsofmeasure.org",
                            "unit": "/[HPF]",
                            "value": 0
                        },
                        "type": {
                            "coding": [
                                {
                                    "code": "normal",
                                    "display": "Normal Range",
                                    "system": "http://hl7.org/fhir/referencerange-meaning"
                                }
                            ],
                            "text": "Normal Range"
                        }
                    }
                ],
                "resourceType": "Observation",
                "status": "unknown",
                "subject": {
                    "reference": "Patient/nhs-1157764"
                },
                "text": {
                    "div": "<div xmlns=\"http://www.w3.org/1999/xhtml\">2006-10-30: RBC #/area UrnS HPF = 1 /[HPF]</div>",
                    "status": "generated"
                },
                "valueQuantity": {
                    "code": "/[HPF]",
                    "system": "http://unitsofmeasure.org",
                    "unit": "/[HPF]",
                    "value": 1
                },
                "meta": {
                    "tag": [
                        {
                            "system": "https://smarthealthit.org/tags",
                            "code": "nhs"
                        }
                    ]
                }
            },
            "fullUrl": "/Observation/nhs-1849-lab"
        },
        {
            "request": {
                "method": "PUT",
                "url": "Observation/nhs-1850-lab"
            },
            "resource": {
                "category": [
                    {
                        "coding": [
                            {
                                "code": "laboratory",
                                "display": "Laboratory",
                                "system": "http://hl7.org/fhir/observation-category"
                            }
                        ],
                        "text": "Laboratory"
                    }
                ],
                "code": {
                    "coding": [
                        {
                            "code": "5821-4",
                            "display": "WBC #/area UrnS HPF",
                            "system": "http://loinc.org"
                        }
                    ],
                    "text": "WBC #/area UrnS HPF"
                },
                "effectiveDateTime": "2006-10-30",
                "id": "nhs-1850-lab",
                "identifier": [
                    {
                        "system": "http://www.bmc.nl/zorgportal/identifiers/observations",
                        "use": "official",
                        "value": "nhs-1850-lab"
                    }
                ],
                "performer": [
                    {
                        "reference": "Practitioner/nhs-Practitioner-7880378"
                    }
                ],
                "referenceRange": [
                    {
                        "high": {
                            "code": "/[HPF]",
                            "system": "http://unitsofmeasure.org",
                            "unit": "/[HPF]",
                            "value": 5
                        },
                        "low": {
                            "code": "/[HPF]",
                            "system": "http://unitsofmeasure.org",
                            "unit": "/[HPF]",
                            "value": 0
                        },
                        "type": {
                            "coding": [
                                {
                                    "code": "normal",
                                    "display": "Normal Range",
                                    "system": "http://hl7.org/fhir/referencerange-meaning"
                                }
                            ],
                            "text": "Normal Range"
                        }
                    }
                ],
                "resourceType": "Observation",
                "status": "unknown",
                "subject": {
                    "reference": "Patient/nhs-1157764"
                },
                "text": {
                    "div": "<div xmlns=\"http://www.w3.org/1999/xhtml\">2006-10-30: WBC #/area UrnS HPF = 1 /[HPF]</div>",
                    "status": "generated"
                },
                "valueQuantity": {
                    "code": "/[HPF]",
                    "system": "http://unitsofmeasure.org",
                    "unit": "/[HPF]",
                    "value": 1
                },
                "meta": {
                    "tag": [
                        {
                            "system": "https://smarthealthit.org/tags",
                            "code": "nhs"
                        }
                    ]
                }
            },
            "fullUrl": "/Observation/nhs-1850-lab"
        },
        {
            "request": {
                "method": "PUT",
                "url": "Observation/nhs-1851-lab"
            },
            "resource": {
                "category": [
                    {
                        "coding": [
                            {
                                "code": "laboratory",
                                "display": "Laboratory",
                                "system": "http://hl7.org/fhir/observation-category"
                            }
                        ],
                        "text": "Laboratory"
                    }
                ],
                "code": {
                    "coding": [
                        {
                            "code": "5769-5",
                            "display": "Bacteria #/area UrnS HPF",
                            "system": "http://loinc.org"
                        }
                    ],
                    "text": "Bacteria #/area UrnS HPF"
                },
                "effectiveDateTime": "2006-10-30",
                "id": "nhs-1851-lab",
                "identifier": [
                    {
                        "system": "http://www.bmc.nl/zorgportal/identifiers/observations",
                        "use": "official",
                        "value": "nhs-1851-lab"
                    }
                ],
                "performer": [
                    {
                        "reference": "Practitioner/nhs-Practitioner-7880378"
                    }
                ],
                "referenceRange": [
                    {
                        "high": {
                            "code": "/[HPF]",
                            "system": "http://unitsofmeasure.org",
                            "unit": "/[HPF]",
                            "value": 0
                        },
                        "low": {
                            "code": "/[HPF]",
                            "system": "http://unitsofmeasure.org",
                            "unit": "/[HPF]",
                            "value": 0
                        },
                        "type": {
                            "coding": [
                                {
                                    "code": "normal",
                                    "display": "Normal Range",
                                    "system": "http://hl7.org/fhir/referencerange-meaning"
                                }
                            ],
                            "text": "Normal Range"
                        }
                    }
                ],
                "resourceType": "Observation",
                "status": "unknown",
                "subject": {
                    "reference": "Patient/nhs-1157764"
                },
                "text": {
                    "div": "<div xmlns=\"http://www.w3.org/1999/xhtml\">2006-10-30: Bacteria #/area UrnS HPF = 44 /[HPF]</div>",
                    "status": "generated"
                },
                "valueQuantity": {
                    "code": "/[HPF]",
                    "system": "http://unitsofmeasure.org",
                    "unit": "/[HPF]",
                    "value": 44
                },
                "meta": {
                    "tag": [
                        {
                            "system": "https://smarthealthit.org/tags",
                            "code": "nhs"
                        }
                    ]
                }
            },
            "fullUrl": "/Observation/nhs-1851-lab"
        },
        {
            "request": {
                "method": "PUT",
                "url": "Observation/nhs-1852-lab"
            },
            "resource": {
                "category": [
                    {
                        "coding": [
                            {
                                "code": "laboratory",
                                "display": "Laboratory",
                                "system": "http://hl7.org/fhir/observation-category"
                            }
                        ],
                        "text": "Laboratory"
                    }
                ],
                "code": {
                    "coding": [
                        {
                            "code": "12258-0",
                            "display": "Squamous UrnS Ql HPF",
                            "system": "http://loinc.org"
                        }
                    ],
                    "text": "Squamous UrnS Ql HPF"
                },
                "effectiveDateTime": "2006-10-30",
                "extension": [
                    {
                        "url": "http://fhir-registry.smarthealthit.org/StructureDefinition/labs#value-range",
                        "valueString": [
                            "None",
                            "Few",
                            "Many"
                        ]
                    }
                ],
                "id": "nhs-1852-lab",
                "identifier": [
                    {
                        "system": "http://www.bmc.nl/zorgportal/identifiers/observations",
                        "use": "official",
                        "value": "nhs-1852-lab"
                    }
                ],
                "performer": [
                    {
                        "reference": "Practitioner/nhs-Practitioner-7880378"
                    }
                ],
                "resourceType": "Observation",
                "status": "unknown",
                "subject": {
                    "reference": "Patient/nhs-1157764"
                },
                "text": {
                    "div": "<div xmlns=\"http://www.w3.org/1999/xhtml\">2006-10-30: Squamous UrnS Ql HPF = None </div>",
                    "status": "generated"
                },
                "valueString": "None",
                "meta": {
                    "tag": [
                        {
                            "system": "https://smarthealthit.org/tags",
                            "code": "nhs"
                        }
                    ]
                }
            },
            "fullUrl": "/Observation/nhs-1852-lab"
        },
        {
            "request": {
                "method": "PUT",
                "url": "Observation/nhs-1853-lab"
            },
            "resource": {
                "category": [
                    {
                        "coding": [
                            {
                                "code": "laboratory",
                                "display": "Laboratory",
                                "system": "http://hl7.org/fhir/observation-category"
                            }
                        ],
                        "text": "Laboratory"
                    }
                ],
                "code": {
                    "coding": [
                        {
                            "code": "5811-5",
                            "display": "Sp Gr Ur Strip",
                            "system": "http://loinc.org"
                        }
                    ],
                    "text": "Sp Gr Ur Strip"
                },
                "effectiveDateTime": "2006-10-30",
                "id": "nhs-1853-lab",
                "identifier": [
                    {
                        "system": "http://www.bmc.nl/zorgportal/identifiers/observations",
                        "use": "official",
                        "value": "nhs-1853-lab"
                    }
                ],
                "performer": [
                    {
                        "reference": "Practitioner/nhs-Practitioner-7880378"
                    }
                ],
                "resourceType": "Observation",
                "status": "unknown",
                "subject": {
                    "reference": "Patient/nhs-1157764"
                },
                "text": {
                    "div": "<div xmlns=\"http://www.w3.org/1999/xhtml\">2006-10-30: Sp Gr Ur Strip = 1.001 </div>",
                    "status": "generated"
                },
                "valueQuantity": {
                    "system": "http://unitsofmeasure.org",
                    "value": 1.001
                },
                "meta": {
                    "tag": [
                        {
                            "system": "https://smarthealthit.org/tags",
                            "code": "nhs"
                        }
                    ]
                }
            },
            "fullUrl": "/Observation/nhs-1853-lab"
        },
        {
            "request": {
                "method": "PUT",
                "url": "Observation/nhs-1854-lab"
            },
            "resource": {
                "category": [
                    {
                        "coding": [
                            {
                                "code": "laboratory",
                                "display": "Laboratory",
                                "system": "http://hl7.org/fhir/observation-category"
                            }
                        ],
                        "text": "Laboratory"
                    }
                ],
                "code": {
                    "coding": [
                        {
                            "code": "5802-4",
                            "display": "Nitrite Ur Ql Strip",
                            "system": "http://loinc.org"
                        }
                    ],
                    "text": "Nitrite Ur Ql Strip"
                },
                "effectiveDateTime": "2006-10-30",
                "extension": [
                    {
                        "url": "http://fhir-registry.smarthealthit.org/StructureDefinition/labs#value-range",
                        "valueString": [
                            "Negative",
                            "Positive"
                        ]
                    }
                ],
                "id": "nhs-1854-lab",
                "identifier": [
                    {
                        "system": "http://www.bmc.nl/zorgportal/identifiers/observations",
                        "use": "official",
                        "value": "nhs-1854-lab"
                    }
                ],
                "performer": [
                    {
                        "reference": "Practitioner/nhs-Practitioner-7880378"
                    }
                ],
                "resourceType": "Observation",
                "status": "unknown",
                "subject": {
                    "reference": "Patient/nhs-1157764"
                },
                "text": {
                    "div": "<div xmlns=\"http://www.w3.org/1999/xhtml\">2006-10-30: Nitrite Ur Ql Strip = Negative </div>",
                    "status": "generated"
                },
                "valueString": "Negative",
                "meta": {
                    "tag": [
                        {
                            "system": "https://smarthealthit.org/tags",
                            "code": "nhs"
                        }
                    ]
                }
            },
            "fullUrl": "/Observation/nhs-1854-lab"
        },
        {
            "request": {
                "method": "PUT",
                "url": "Observation/nhs-1855-lab"
            },
            "resource": {
                "category": [
                    {
                        "coding": [
                            {
                                "code": "laboratory",
                                "display": "Laboratory",
                                "system": "http://hl7.org/fhir/observation-category"
                            }
                        ],
                        "text": "Laboratory"
                    }
                ],
                "code": {
                    "coding": [
                        {
                            "code": "5767-9",
                            "display": "Appearance Ur",
                            "system": "http://loinc.org"
                        }
                    ],
                    "text": "Appearance Ur"
                },
                "effectiveDateTime": "2006-10-30",
                "id": "nhs-1855-lab",
                "identifier": [
                    {
                        "system": "http://www.bmc.nl/zorgportal/identifiers/observations",
                        "use": "official",
                        "value": "nhs-1855-lab"
                    }
                ],
                "performer": [
                    {
                        "reference": "Practitioner/nhs-Practitioner-7880378"
                    }
                ],
                "resourceType": "Observation",
                "status": "unknown",
                "subject": {
                    "reference": "Patient/nhs-1157764"
                },
                "text": {
                    "div": "<div xmlns=\"http://www.w3.org/1999/xhtml\">2006-10-30: Appearance Ur = Clear </div>",
                    "status": "generated"
                },
                "valueString": "Clear",
                "meta": {
                    "tag": [
                        {
                            "system": "https://smarthealthit.org/tags",
                            "code": "nhs"
                        }
                    ]
                }
            },
            "fullUrl": "/Observation/nhs-1855-lab"
        },
        {
            "request": {
                "method": "PUT",
                "url": "Observation/nhs-1856-lab"
            },
            "resource": {
                "category": [
                    {
                        "coding": [
                            {
                                "code": "laboratory",
                                "display": "Laboratory",
                                "system": "http://hl7.org/fhir/observation-category"
                            }
                        ],
                        "text": "Laboratory"
                    }
                ],
                "code": {
                    "coding": [
                        {
                            "code": "30522-7",
                            "display": "CRP SerPl HS-mCnc",
                            "system": "http://loinc.org"
                        }
                    ],
                    "text": "CRP SerPl HS-mCnc"
                },
                "effectiveDateTime": "2004-07-23",
                "id": "nhs-1856-lab",
                "identifier": [
                    {
                        "system": "http://www.bmc.nl/zorgportal/identifiers/observations",
                        "use": "official",
                        "value": "nhs-1856-lab"
                    }
                ],
                "performer": [
                    {
                        "reference": "Practitioner/nhs-Practitioner-7880378"
                    }
                ],
                "referenceRange": [
                    {
                        "high": {
                            "code": "mg/L",
                            "system": "http://unitsofmeasure.org",
                            "unit": "mg/L",
                            "value": 3
                        },
                        "low": {
                            "code": "mg/L",
                            "system": "http://unitsofmeasure.org",
                            "unit": "mg/L",
                            "value": 0
                        },
                        "type": {
                            "coding": [
                                {
                                    "code": "normal",
                                    "display": "Normal Range",
                                    "system": "http://hl7.org/fhir/referencerange-meaning"
                                }
                            ],
                            "text": "Normal Range"
                        }
                    }
                ],
                "resourceType": "Observation",
                "status": "unknown",
                "subject": {
                    "reference": "Patient/nhs-1157764"
                },
                "text": {
                    "div": "<div xmlns=\"http://www.w3.org/1999/xhtml\">2004-07-23: CRP SerPl HS-mCnc = 2.2 mg/L</div>",
                    "status": "generated"
                },
                "valueQuantity": {
                    "code": "mg/L",
                    "system": "http://unitsofmeasure.org",
                    "unit": "mg/L",
                    "value": 2.2
                },
                "meta": {
                    "tag": [
                        {
                            "system": "https://smarthealthit.org/tags",
                            "code": "nhs"
                        }
                    ]
                }
            },
            "fullUrl": "/Observation/nhs-1856-lab"
        },
        {
            "request": {
                "method": "PUT",
                "url": "MedicationRequest/nhs-MedicationRequest-128"
            },
            "resource": {
                "dispenseRequest": {
                    "expectedSupplyDuration": {
                        "code": "d",
                        "system": "http://unitsofmeasure.org",
                        "unit": "days",
                        "value": 30
                    },
                    "numberOfRepeatsAllowed": 1,
                    "quantity": {
                        "code": "{tablet}",
                        "system": "http://unitsofmeasure.org",
                        "unit": "{tablet}",
                        "value": 30
                    }
                },
                "dosageInstruction": [
                    {
                        "doseQuantity": {
                            "code": "{tablet}",
                            "system": "http://unitsofmeasure.org",
                            "unit": "{tablet}",
                            "value": 1
                        },
                        "text": "1 daily",
                        "timing": {
                            "repeat": {
                                "boundsPeriod": {
                                    "start": "2003-10-23"
                                },
                                "frequency": 1,
                                "period": 1,
                                "periodUnit": "d"
                            }
                        }
                    }
                ],
                "id": "nhs-MedicationRequest-128",
                "intent": "order",
                "medicationCodeableConcept": {
                    "coding": [
                        {
                            "code": "151124",
                            "display": "anastrozole 1 MG Oral Tablet [Arimidex]",
                            "system": "http://www.nlm.nih.gov/research/umls/rxnorm"
                        }
                    ],
                    "text": "anastrozole 1 MG Oral Tablet [Arimidex]"
                },
                "resourceType": "MedicationRequest",
                "status": "active",
                "subject": {
                    "reference": "Patient/nhs-1157764"
                },
                "text": {
                    "div": "<div xmlns=\"http://www.w3.org/1999/xhtml\">anastrozole 1 MG Oral Tablet [Arimidex] (rxnorm: 151124)</div>",
                    "status": "generated"
                },
                "meta": {
                    "tag": [
                        {
                            "system": "https://smarthealthit.org/tags",
                            "code": "nhs"
                        }
                    ]
                }
            },
            "fullUrl": "/MedicationRequest/nhs-MedicationRequest-128"
        },
        {
            "request": {
                "method": "PUT",
                "url": "MedicationDispense/nhs-MedicationDispense-928"
            },
            "resource": {
                "authorizingPrescription": [
                    {
                        "reference": "MedicationRequest/nhs-MedicationRequest-128"
                    }
                ],
                "daysSupply": {
                    "code": "d",
                    "system": "http://unitsofmeasure.org",
                    "unit": "days",
                    "value": 30
                },
                "id": "nhs-MedicationDispense-928",
                "medicationCodeableConcept": {
                    "coding": [
                        {
                            "code": "151124",
                            "display": "anastrozole 1 MG Oral Tablet [Arimidex]",
                            "system": "http://www.nlm.nih.gov/research/umls/rxnorm"
                        }
                    ],
                    "text": "anastrozole 1 MG Oral Tablet [Arimidex]"
                },
                "quantity": {
                    "code": "{tablets}",
                    "system": "http://unitsofmeasure.org",
                    "unit": "tablets",
                    "value": 30
                },
                "resourceType": "MedicationDispense",
                "status": "completed",
                "subject": {
                    "reference": "Patient/nhs-1157764"
                },
                "text": {
                    "div": "<div xmlns=\"http://www.w3.org/1999/xhtml\">Dispensed 30 tablets = 30 day supply of anastrozole 1 MG Oral Tablet [Arimidex]</div>",
                    "status": "generated"
                },
                "whenHandedOver": "2005-07-04",
                "meta": {
                    "tag": [
                        {
                            "system": "https://smarthealthit.org/tags",
                            "code": "nhs"
                        }
                    ]
                }
            },
            "fullUrl": "/MedicationDispense/nhs-MedicationDispense-928"
        },
        {
            "request": {
                "method": "PUT",
                "url": "MedicationDispense/nhs-MedicationDispense-913"
            },
            "resource": {
                "authorizingPrescription": [
                    {
                        "reference": "MedicationRequest/nhs-MedicationRequest-128"
                    }
                ],
                "daysSupply": {
                    "code": "d",
                    "system": "http://unitsofmeasure.org",
                    "unit": "days",
                    "value": 30
                },
                "id": "nhs-MedicationDispense-913",
                "medicationCodeableConcept": {
                    "coding": [
                        {
                            "code": "151124",
                            "display": "anastrozole 1 MG Oral Tablet [Arimidex]",
                            "system": "http://www.nlm.nih.gov/research/umls/rxnorm"
                        }
                    ],
                    "text": "anastrozole 1 MG Oral Tablet [Arimidex]"
                },
                "quantity": {
                    "code": "{tablets}",
                    "system": "http://unitsofmeasure.org",
                    "unit": "tablets",
                    "value": 30
                },
                "resourceType": "MedicationDispense",
                "status": "completed",
                "subject": {
                    "reference": "Patient/nhs-1157764"
                },
                "text": {
                    "div": "<div xmlns=\"http://www.w3.org/1999/xhtml\">Dispensed 30 tablets = 30 day supply of anastrozole 1 MG Oral Tablet [Arimidex]</div>",
                    "status": "generated"
                },
                "whenHandedOver": "2004-01-20",
                "meta": {
                    "tag": [
                        {
                            "system": "https://smarthealthit.org/tags",
                            "code": "nhs"
                        }
                    ]
                }
            },
            "fullUrl": "/MedicationDispense/nhs-MedicationDispense-913"
        },
        {
            "request": {
                "method": "PUT",
                "url": "MedicationDispense/nhs-MedicationDispense-936"
            },
            "resource": {
                "authorizingPrescription": [
                    {
                        "reference": "MedicationRequest/nhs-MedicationRequest-128"
                    }
                ],
                "daysSupply": {
                    "code": "d",
                    "system": "http://unitsofmeasure.org",
                    "unit": "days",
                    "value": 30
                },
                "id": "nhs-MedicationDispense-936",
                "medicationCodeableConcept": {
                    "coding": [
                        {
                            "code": "151124",
                            "display": "anastrozole 1 MG Oral Tablet [Arimidex]",
                            "system": "http://www.nlm.nih.gov/research/umls/rxnorm"
                        }
                    ],
                    "text": "anastrozole 1 MG Oral Tablet [Arimidex]"
                },
                "quantity": {
                    "code": "{tablets}",
                    "system": "http://unitsofmeasure.org",
                    "unit": "tablets",
                    "value": 30
                },
                "resourceType": "MedicationDispense",
                "status": "completed",
                "subject": {
                    "reference": "Patient/nhs-1157764"
                },
                "text": {
                    "div": "<div xmlns=\"http://www.w3.org/1999/xhtml\">Dispensed 30 tablets = 30 day supply of anastrozole 1 MG Oral Tablet [Arimidex]</div>",
                    "status": "generated"
                },
                "whenHandedOver": "2006-03-02",
                "meta": {
                    "tag": [
                        {
                            "system": "https://smarthealthit.org/tags",
                            "code": "nhs"
                        }
                    ]
                }
            },
            "fullUrl": "/MedicationDispense/nhs-MedicationDispense-936"
        },
        {
            "request": {
                "method": "PUT",
                "url": "MedicationDispense/nhs-MedicationDispense-925"
            },
            "resource": {
                "authorizingPrescription": [
                    {
                        "reference": "MedicationRequest/nhs-MedicationRequest-128"
                    }
                ],
                "daysSupply": {
                    "code": "d",
                    "system": "http://unitsofmeasure.org",
                    "unit": "days",
                    "value": 30
                },
                "id": "nhs-MedicationDispense-925",
                "medicationCodeableConcept": {
                    "coding": [
                        {
                            "code": "151124",
                            "display": "anastrozole 1 MG Oral Tablet [Arimidex]",
                            "system": "http://www.nlm.nih.gov/research/umls/rxnorm"
                        }
                    ],
                    "text": "anastrozole 1 MG Oral Tablet [Arimidex]"
                },
                "quantity": {
                    "code": "{tablets}",
                    "system": "http://unitsofmeasure.org",
                    "unit": "tablets",
                    "value": 30
                },
                "resourceType": "MedicationDispense",
                "status": "completed",
                "subject": {
                    "reference": "Patient/nhs-1157764"
                },
                "text": {
                    "div": "<div xmlns=\"http://www.w3.org/1999/xhtml\">Dispensed 30 tablets = 30 day supply of anastrozole 1 MG Oral Tablet [Arimidex]</div>",
                    "status": "generated"
                },
                "whenHandedOver": "2005-04-07",
                "meta": {
                    "tag": [
                        {
                            "system": "https://smarthealthit.org/tags",
                            "code": "nhs"
                        }
                    ]
                }
            },
            "fullUrl": "/MedicationDispense/nhs-MedicationDispense-925"
        },
        {
            "request": {
                "method": "PUT",
                "url": "MedicationDispense/nhs-MedicationDispense-920"
            },
            "resource": {
                "authorizingPrescription": [
                    {
                        "reference": "MedicationRequest/nhs-MedicationRequest-128"
                    }
                ],
                "daysSupply": {
                    "code": "d",
                    "system": "http://unitsofmeasure.org",
                    "unit": "days",
                    "value": 30
                },
                "id": "nhs-MedicationDispense-920",
                "medicationCodeableConcept": {
                    "coding": [
                        {
                            "code": "151124",
                            "display": "anastrozole 1 MG Oral Tablet [Arimidex]",
                            "system": "http://www.nlm.nih.gov/research/umls/rxnorm"
                        }
                    ],
                    "text": "anastrozole 1 MG Oral Tablet [Arimidex]"
                },
                "quantity": {
                    "code": "{tablets}",
                    "system": "http://unitsofmeasure.org",
                    "unit": "tablets",
                    "value": 30
                },
                "resourceType": "MedicationDispense",
                "status": "completed",
                "subject": {
                    "reference": "Patient/nhs-1157764"
                },
                "text": {
                    "div": "<div xmlns=\"http://www.w3.org/1999/xhtml\">Dispensed 30 tablets = 30 day supply of anastrozole 1 MG Oral Tablet [Arimidex]</div>",
                    "status": "generated"
                },
                "whenHandedOver": "2004-09-26",
                "meta": {
                    "tag": [
                        {
                            "system": "https://smarthealthit.org/tags",
                            "code": "nhs"
                        }
                    ]
                }
            },
            "fullUrl": "/MedicationDispense/nhs-MedicationDispense-920"
        },
        {
            "request": {
                "method": "PUT",
                "url": "MedicationDispense/nhs-MedicationDispense-924"
            },
            "resource": {
                "authorizingPrescription": [
                    {
                        "reference": "MedicationRequest/nhs-MedicationRequest-128"
                    }
                ],
                "daysSupply": {
                    "code": "d",
                    "system": "http://unitsofmeasure.org",
                    "unit": "days",
                    "value": 30
                },
                "id": "nhs-MedicationDispense-924",
                "medicationCodeableConcept": {
                    "coding": [
                        {
                            "code": "151124",
                            "display": "anastrozole 1 MG Oral Tablet [Arimidex]",
                            "system": "http://www.nlm.nih.gov/research/umls/rxnorm"
                        }
                    ],
                    "text": "anastrozole 1 MG Oral Tablet [Arimidex]"
                },
                "quantity": {
                    "code": "{tablets}",
                    "system": "http://unitsofmeasure.org",
                    "unit": "tablets",
                    "value": 30
                },
                "resourceType": "MedicationDispense",
                "status": "completed",
                "subject": {
                    "reference": "Patient/nhs-1157764"
                },
                "text": {
                    "div": "<div xmlns=\"http://www.w3.org/1999/xhtml\">Dispensed 30 tablets = 30 day supply of anastrozole 1 MG Oral Tablet [Arimidex]</div>",
                    "status": "generated"
                },
                "whenHandedOver": "2005-03-09",
                "meta": {
                    "tag": [
                        {
                            "system": "https://smarthealthit.org/tags",
                            "code": "nhs"
                        }
                    ]
                }
            },
            "fullUrl": "/MedicationDispense/nhs-MedicationDispense-924"
        },
        {
            "request": {
                "method": "PUT",
                "url": "MedicationDispense/nhs-MedicationDispense-927"
            },
            "resource": {
                "authorizingPrescription": [
                    {
                        "reference": "MedicationRequest/nhs-MedicationRequest-128"
                    }
                ],
                "daysSupply": {
                    "code": "d",
                    "system": "http://unitsofmeasure.org",
                    "unit": "days",
                    "value": 30
                },
                "id": "nhs-MedicationDispense-927",
                "medicationCodeableConcept": {
                    "coding": [
                        {
                            "code": "151124",
                            "display": "anastrozole 1 MG Oral Tablet [Arimidex]",
                            "system": "http://www.nlm.nih.gov/research/umls/rxnorm"
                        }
                    ],
                    "text": "anastrozole 1 MG Oral Tablet [Arimidex]"
                },
                "quantity": {
                    "code": "{tablets}",
                    "system": "http://unitsofmeasure.org",
                    "unit": "tablets",
                    "value": 30
                },
                "resourceType": "MedicationDispense",
                "status": "completed",
                "subject": {
                    "reference": "Patient/nhs-1157764"
                },
                "text": {
                    "div": "<div xmlns=\"http://www.w3.org/1999/xhtml\">Dispensed 30 tablets = 30 day supply of anastrozole 1 MG Oral Tablet [Arimidex]</div>",
                    "status": "generated"
                },
                "whenHandedOver": "2005-06-05",
                "meta": {
                    "tag": [
                        {
                            "system": "https://smarthealthit.org/tags",
                            "code": "nhs"
                        }
                    ]
                }
            },
            "fullUrl": "/MedicationDispense/nhs-MedicationDispense-927"
        },
        {
            "request": {
                "method": "PUT",
                "url": "MedicationDispense/nhs-MedicationDispense-930"
            },
            "resource": {
                "authorizingPrescription": [
                    {
                        "reference": "MedicationRequest/nhs-MedicationRequest-128"
                    }
                ],
                "daysSupply": {
                    "code": "d",
                    "system": "http://unitsofmeasure.org",
                    "unit": "days",
                    "value": 30
                },
                "id": "nhs-MedicationDispense-930",
                "medicationCodeableConcept": {
                    "coding": [
                        {
                            "code": "151124",
                            "display": "anastrozole 1 MG Oral Tablet [Arimidex]",
                            "system": "http://www.nlm.nih.gov/research/umls/rxnorm"
                        }
                    ],
                    "text": "anastrozole 1 MG Oral Tablet [Arimidex]"
                },
                "quantity": {
                    "code": "{tablets}",
                    "system": "http://unitsofmeasure.org",
                    "unit": "tablets",
                    "value": 30
                },
                "resourceType": "MedicationDispense",
                "status": "completed",
                "subject": {
                    "reference": "Patient/nhs-1157764"
                },
                "text": {
                    "div": "<div xmlns=\"http://www.w3.org/1999/xhtml\">Dispensed 30 tablets = 30 day supply of anastrozole 1 MG Oral Tablet [Arimidex]</div>",
                    "status": "generated"
                },
                "whenHandedOver": "2005-09-02",
                "meta": {
                    "tag": [
                        {
                            "system": "https://smarthealthit.org/tags",
                            "code": "nhs"
                        }
                    ]
                }
            },
            "fullUrl": "/MedicationDispense/nhs-MedicationDispense-930"
        },
        {
            "request": {
                "method": "PUT",
                "url": "MedicationDispense/nhs-MedicationDispense-912"
            },
            "resource": {
                "authorizingPrescription": [
                    {
                        "reference": "MedicationRequest/nhs-MedicationRequest-128"
                    }
                ],
                "daysSupply": {
                    "code": "d",
                    "system": "http://unitsofmeasure.org",
                    "unit": "days",
                    "value": 30
                },
                "id": "nhs-MedicationDispense-912",
                "medicationCodeableConcept": {
                    "coding": [
                        {
                            "code": "151124",
                            "display": "anastrozole 1 MG Oral Tablet [Arimidex]",
                            "system": "http://www.nlm.nih.gov/research/umls/rxnorm"
                        }
                    ],
                    "text": "anastrozole 1 MG Oral Tablet [Arimidex]"
                },
                "quantity": {
                    "code": "{tablets}",
                    "system": "http://unitsofmeasure.org",
                    "unit": "tablets",
                    "value": 30
                },
                "resourceType": "MedicationDispense",
                "status": "completed",
                "subject": {
                    "reference": "Patient/nhs-1157764"
                },
                "text": {
                    "div": "<div xmlns=\"http://www.w3.org/1999/xhtml\">Dispensed 30 tablets = 30 day supply of anastrozole 1 MG Oral Tablet [Arimidex]</div>",
                    "status": "generated"
                },
                "whenHandedOver": "2003-12-21",
                "meta": {
                    "tag": [
                        {
                            "system": "https://smarthealthit.org/tags",
                            "code": "nhs"
                        }
                    ]
                }
            },
            "fullUrl": "/MedicationDispense/nhs-MedicationDispense-912"
        },
        {
            "request": {
                "method": "PUT",
                "url": "MedicationDispense/nhs-MedicationDispense-917"
            },
            "resource": {
                "authorizingPrescription": [
                    {
                        "reference": "MedicationRequest/nhs-MedicationRequest-128"
                    }
                ],
                "daysSupply": {
                    "code": "d",
                    "system": "http://unitsofmeasure.org",
                    "unit": "days",
                    "value": 30
                },
                "id": "nhs-MedicationDispense-917",
                "medicationCodeableConcept": {
                    "coding": [
                        {
                            "code": "151124",
                            "display": "anastrozole 1 MG Oral Tablet [Arimidex]",
                            "system": "http://www.nlm.nih.gov/research/umls/rxnorm"
                        }
                    ],
                    "text": "anastrozole 1 MG Oral Tablet [Arimidex]"
                },
                "quantity": {
                    "code": "{tablets}",
                    "system": "http://unitsofmeasure.org",
                    "unit": "tablets",
                    "value": 30
                },
                "resourceType": "MedicationDispense",
                "status": "completed",
                "subject": {
                    "reference": "Patient/nhs-1157764"
                },
                "text": {
                    "div": "<div xmlns=\"http://www.w3.org/1999/xhtml\">Dispensed 30 tablets = 30 day supply of anastrozole 1 MG Oral Tablet [Arimidex]</div>",
                    "status": "generated"
                },
                "whenHandedOver": "2004-06-29",
                "meta": {
                    "tag": [
                        {
                            "system": "https://smarthealthit.org/tags",
                            "code": "nhs"
                        }
                    ]
                }
            },
            "fullUrl": "/MedicationDispense/nhs-MedicationDispense-917"
        },
        {
            "request": {
                "method": "PUT",
                "url": "MedicationDispense/nhs-MedicationDispense-931"
            },
            "resource": {
                "authorizingPrescription": [
                    {
                        "reference": "MedicationRequest/nhs-MedicationRequest-128"
                    }
                ],
                "daysSupply": {
                    "code": "d",
                    "system": "http://unitsofmeasure.org",
                    "unit": "days",
                    "value": 30
                },
                "id": "nhs-MedicationDispense-931",
                "medicationCodeableConcept": {
                    "coding": [
                        {
                            "code": "151124",
                            "display": "anastrozole 1 MG Oral Tablet [Arimidex]",
                            "system": "http://www.nlm.nih.gov/research/umls/rxnorm"
                        }
                    ],
                    "text": "anastrozole 1 MG Oral Tablet [Arimidex]"
                },
                "quantity": {
                    "code": "{tablets}",
                    "system": "http://unitsofmeasure.org",
                    "unit": "tablets",
                    "value": 30
                },
                "resourceType": "MedicationDispense",
                "status": "completed",
                "subject": {
                    "reference": "Patient/nhs-1157764"
                },
                "text": {
                    "div": "<div xmlns=\"http://www.w3.org/1999/xhtml\">Dispensed 30 tablets = 30 day supply of anastrozole 1 MG Oral Tablet [Arimidex]</div>",
                    "status": "generated"
                },
                "whenHandedOver": "2005-10-03",
                "meta": {
                    "tag": [
                        {
                            "system": "https://smarthealthit.org/tags",
                            "code": "nhs"
                        }
                    ]
                }
            },
            "fullUrl": "/MedicationDispense/nhs-MedicationDispense-931"
        },
        {
            "request": {
                "method": "PUT",
                "url": "MedicationDispense/nhs-MedicationDispense-921"
            },
            "resource": {
                "authorizingPrescription": [
                    {
                        "reference": "MedicationRequest/nhs-MedicationRequest-128"
                    }
                ],
                "daysSupply": {
                    "code": "d",
                    "system": "http://unitsofmeasure.org",
                    "unit": "days",
                    "value": 30
                },
                "id": "nhs-MedicationDispense-921",
                "medicationCodeableConcept": {
                    "coding": [
                        {
                            "code": "151124",
                            "display": "anastrozole 1 MG Oral Tablet [Arimidex]",
                            "system": "http://www.nlm.nih.gov/research/umls/rxnorm"
                        }
                    ],
                    "text": "anastrozole 1 MG Oral Tablet [Arimidex]"
                },
                "quantity": {
                    "code": "{tablets}",
                    "system": "http://unitsofmeasure.org",
                    "unit": "tablets",
                    "value": 30
                },
                "resourceType": "MedicationDispense",
                "status": "completed",
                "subject": {
                    "reference": "Patient/nhs-1157764"
                },
                "text": {
                    "div": "<div xmlns=\"http://www.w3.org/1999/xhtml\">Dispensed 30 tablets = 30 day supply of anastrozole 1 MG Oral Tablet [Arimidex]</div>",
                    "status": "generated"
                },
                "whenHandedOver": "2004-10-27",
                "meta": {
                    "tag": [
                        {
                            "system": "https://smarthealthit.org/tags",
                            "code": "nhs"
                        }
                    ]
                }
            },
            "fullUrl": "/MedicationDispense/nhs-MedicationDispense-921"
        },
        {
            "request": {
                "method": "PUT",
                "url": "MedicationDispense/nhs-MedicationDispense-911"
            },
            "resource": {
                "authorizingPrescription": [
                    {
                        "reference": "MedicationRequest/nhs-MedicationRequest-128"
                    }
                ],
                "daysSupply": {
                    "code": "d",
                    "system": "http://unitsofmeasure.org",
                    "unit": "days",
                    "value": 30
                },
                "id": "nhs-MedicationDispense-911",
                "medicationCodeableConcept": {
                    "coding": [
                        {
                            "code": "151124",
                            "display": "anastrozole 1 MG Oral Tablet [Arimidex]",
                            "system": "http://www.nlm.nih.gov/research/umls/rxnorm"
                        }
                    ],
                    "text": "anastrozole 1 MG Oral Tablet [Arimidex]"
                },
                "quantity": {
                    "code": "{tablets}",
                    "system": "http://unitsofmeasure.org",
                    "unit": "tablets",
                    "value": 30
                },
                "resourceType": "MedicationDispense",
                "status": "completed",
                "subject": {
                    "reference": "Patient/nhs-1157764"
                },
                "text": {
                    "div": "<div xmlns=\"http://www.w3.org/1999/xhtml\">Dispensed 30 tablets = 30 day supply of anastrozole 1 MG Oral Tablet [Arimidex]</div>",
                    "status": "generated"
                },
                "whenHandedOver": "2003-11-21",
                "meta": {
                    "tag": [
                        {
                            "system": "https://smarthealthit.org/tags",
                            "code": "nhs"
                        }
                    ]
                }
            },
            "fullUrl": "/MedicationDispense/nhs-MedicationDispense-911"
        },
        {
            "request": {
                "method": "PUT",
                "url": "MedicationDispense/nhs-MedicationDispense-934"
            },
            "resource": {
                "authorizingPrescription": [
                    {
                        "reference": "MedicationRequest/nhs-MedicationRequest-128"
                    }
                ],
                "daysSupply": {
                    "code": "d",
                    "system": "http://unitsofmeasure.org",
                    "unit": "days",
                    "value": 30
                },
                "id": "nhs-MedicationDispense-934",
                "medicationCodeableConcept": {
                    "coding": [
                        {
                            "code": "151124",
                            "display": "anastrozole 1 MG Oral Tablet [Arimidex]",
                            "system": "http://www.nlm.nih.gov/research/umls/rxnorm"
                        }
                    ],
                    "text": "anastrozole 1 MG Oral Tablet [Arimidex]"
                },
                "quantity": {
                    "code": "{tablets}",
                    "system": "http://unitsofmeasure.org",
                    "unit": "tablets",
                    "value": 30
                },
                "resourceType": "MedicationDispense",
                "status": "completed",
                "subject": {
                    "reference": "Patient/nhs-1157764"
                },
                "text": {
                    "div": "<div xmlns=\"http://www.w3.org/1999/xhtml\">Dispensed 30 tablets = 30 day supply of anastrozole 1 MG Oral Tablet [Arimidex]</div>",
                    "status": "generated"
                },
                "whenHandedOver": "2006-01-01",
                "meta": {
                    "tag": [
                        {
                            "system": "https://smarthealthit.org/tags",
                            "code": "nhs"
                        }
                    ]
                }
            },
            "fullUrl": "/MedicationDispense/nhs-MedicationDispense-934"
        },
        {
            "request": {
                "method": "PUT",
                "url": "MedicationDispense/nhs-MedicationDispense-915"
            },
            "resource": {
                "authorizingPrescription": [
                    {
                        "reference": "MedicationRequest/nhs-MedicationRequest-128"
                    }
                ],
                "daysSupply": {
                    "code": "d",
                    "system": "http://unitsofmeasure.org",
                    "unit": "days",
                    "value": 30
                },
                "id": "nhs-MedicationDispense-915",
                "medicationCodeableConcept": {
                    "coding": [
                        {
                            "code": "151124",
                            "display": "anastrozole 1 MG Oral Tablet [Arimidex]",
                            "system": "http://www.nlm.nih.gov/research/umls/rxnorm"
                        }
                    ],
                    "text": "anastrozole 1 MG Oral Tablet [Arimidex]"
                },
                "quantity": {
                    "code": "{tablets}",
                    "system": "http://unitsofmeasure.org",
                    "unit": "tablets",
                    "value": 30
                },
                "resourceType": "MedicationDispense",
                "status": "completed",
                "subject": {
                    "reference": "Patient/nhs-1157764"
                },
                "text": {
                    "div": "<div xmlns=\"http://www.w3.org/1999/xhtml\">Dispensed 30 tablets = 30 day supply of anastrozole 1 MG Oral Tablet [Arimidex]</div>",
                    "status": "generated"
                },
                "whenHandedOver": "2004-03-20",
                "meta": {
                    "tag": [
                        {
                            "system": "https://smarthealthit.org/tags",
                            "code": "nhs"
                        }
                    ]
                }
            },
            "fullUrl": "/MedicationDispense/nhs-MedicationDispense-915"
        },
        {
            "request": {
                "method": "PUT",
                "url": "MedicationDispense/nhs-MedicationDispense-916"
            },
            "resource": {
                "authorizingPrescription": [
                    {
                        "reference": "MedicationRequest/nhs-MedicationRequest-128"
                    }
                ],
                "daysSupply": {
                    "code": "d",
                    "system": "http://unitsofmeasure.org",
                    "unit": "days",
                    "value": 30
                },
                "id": "nhs-MedicationDispense-916",
                "medicationCodeableConcept": {
                    "coding": [
                        {
                            "code": "151124",
                            "display": "anastrozole 1 MG Oral Tablet [Arimidex]",
                            "system": "http://www.nlm.nih.gov/research/umls/rxnorm"
                        }
                    ],
                    "text": "anastrozole 1 MG Oral Tablet [Arimidex]"
                },
                "quantity": {
                    "code": "{tablets}",
                    "system": "http://unitsofmeasure.org",
                    "unit": "tablets",
                    "value": 30
                },
                "resourceType": "MedicationDispense",
                "status": "completed",
                "subject": {
                    "reference": "Patient/nhs-1157764"
                },
                "text": {
                    "div": "<div xmlns=\"http://www.w3.org/1999/xhtml\">Dispensed 30 tablets = 30 day supply of anastrozole 1 MG Oral Tablet [Arimidex]</div>",
                    "status": "generated"
                },
                "whenHandedOver": "2004-04-19",
                "meta": {
                    "tag": [
                        {
                            "system": "https://smarthealthit.org/tags",
                            "code": "nhs"
                        }
                    ]
                }
            },
            "fullUrl": "/MedicationDispense/nhs-MedicationDispense-916"
        },
        {
            "request": {
                "method": "PUT",
                "url": "MedicationDispense/nhs-MedicationDispense-926"
            },
            "resource": {
                "authorizingPrescription": [
                    {
                        "reference": "MedicationRequest/nhs-MedicationRequest-128"
                    }
                ],
                "daysSupply": {
                    "code": "d",
                    "system": "http://unitsofmeasure.org",
                    "unit": "days",
                    "value": 30
                },
                "id": "nhs-MedicationDispense-926",
                "medicationCodeableConcept": {
                    "coding": [
                        {
                            "code": "151124",
                            "display": "anastrozole 1 MG Oral Tablet [Arimidex]",
                            "system": "http://www.nlm.nih.gov/research/umls/rxnorm"
                        }
                    ],
                    "text": "anastrozole 1 MG Oral Tablet [Arimidex]"
                },
                "quantity": {
                    "code": "{tablets}",
                    "system": "http://unitsofmeasure.org",
                    "unit": "tablets",
                    "value": 30
                },
                "resourceType": "MedicationDispense",
                "status": "completed",
                "subject": {
                    "reference": "Patient/nhs-1157764"
                },
                "text": {
                    "div": "<div xmlns=\"http://www.w3.org/1999/xhtml\">Dispensed 30 tablets = 30 day supply of anastrozole 1 MG Oral Tablet [Arimidex]</div>",
                    "status": "generated"
                },
                "whenHandedOver": "2005-05-06",
                "meta": {
                    "tag": [
                        {
                            "system": "https://smarthealthit.org/tags",
                            "code": "nhs"
                        }
                    ]
                }
            },
            "fullUrl": "/MedicationDispense/nhs-MedicationDispense-926"
        },
        {
            "request": {
                "method": "PUT",
                "url": "MedicationDispense/nhs-MedicationDispense-933"
            },
            "resource": {
                "authorizingPrescription": [
                    {
                        "reference": "MedicationRequest/nhs-MedicationRequest-128"
                    }
                ],
                "daysSupply": {
                    "code": "d",
                    "system": "http://unitsofmeasure.org",
                    "unit": "days",
                    "value": 30
                },
                "id": "nhs-MedicationDispense-933",
                "medicationCodeableConcept": {
                    "coding": [
                        {
                            "code": "151124",
                            "display": "anastrozole 1 MG Oral Tablet [Arimidex]",
                            "system": "http://www.nlm.nih.gov/research/umls/rxnorm"
                        }
                    ],
                    "text": "anastrozole 1 MG Oral Tablet [Arimidex]"
                },
                "quantity": {
                    "code": "{tablets}",
                    "system": "http://unitsofmeasure.org",
                    "unit": "tablets",
                    "value": 30
                },
                "resourceType": "MedicationDispense",
                "status": "completed",
                "subject": {
                    "reference": "Patient/nhs-1157764"
                },
                "text": {
                    "div": "<div xmlns=\"http://www.w3.org/1999/xhtml\">Dispensed 30 tablets = 30 day supply of anastrozole 1 MG Oral Tablet [Arimidex]</div>",
                    "status": "generated"
                },
                "whenHandedOver": "2005-12-02",
                "meta": {
                    "tag": [
                        {
                            "system": "https://smarthealthit.org/tags",
                            "code": "nhs"
                        }
                    ]
                }
            },
            "fullUrl": "/MedicationDispense/nhs-MedicationDispense-933"
        },
        {
            "request": {
                "method": "PUT",
                "url": "MedicationDispense/nhs-MedicationDispense-923"
            },
            "resource": {
                "authorizingPrescription": [
                    {
                        "reference": "MedicationRequest/nhs-MedicationRequest-128"
                    }
                ],
                "daysSupply": {
                    "code": "d",
                    "system": "http://unitsofmeasure.org",
                    "unit": "days",
                    "value": 30
                },
                "id": "nhs-MedicationDispense-923",
                "medicationCodeableConcept": {
                    "coding": [
                        {
                            "code": "151124",
                            "display": "anastrozole 1 MG Oral Tablet [Arimidex]",
                            "system": "http://www.nlm.nih.gov/research/umls/rxnorm"
                        }
                    ],
                    "text": "anastrozole 1 MG Oral Tablet [Arimidex]"
                },
                "quantity": {
                    "code": "{tablets}",
                    "system": "http://unitsofmeasure.org",
                    "unit": "tablets",
                    "value": 30
                },
                "resourceType": "MedicationDispense",
                "status": "completed",
                "subject": {
                    "reference": "Patient/nhs-1157764"
                },
                "text": {
                    "div": "<div xmlns=\"http://www.w3.org/1999/xhtml\">Dispensed 30 tablets = 30 day supply of anastrozole 1 MG Oral Tablet [Arimidex]</div>",
                    "status": "generated"
                },
                "whenHandedOver": "2005-02-06",
                "meta": {
                    "tag": [
                        {
                            "system": "https://smarthealthit.org/tags",
                            "code": "nhs"
                        }
                    ]
                }
            },
            "fullUrl": "/MedicationDispense/nhs-MedicationDispense-923"
        },
        {
            "request": {
                "method": "PUT",
                "url": "MedicationDispense/nhs-MedicationDispense-919"
            },
            "resource": {
                "authorizingPrescription": [
                    {
                        "reference": "MedicationRequest/nhs-MedicationRequest-128"
                    }
                ],
                "daysSupply": {
                    "code": "d",
                    "system": "http://unitsofmeasure.org",
                    "unit": "days",
                    "value": 30
                },
                "id": "nhs-MedicationDispense-919",
                "medicationCodeableConcept": {
                    "coding": [
                        {
                            "code": "151124",
                            "display": "anastrozole 1 MG Oral Tablet [Arimidex]",
                            "system": "http://www.nlm.nih.gov/research/umls/rxnorm"
                        }
                    ],
                    "text": "anastrozole 1 MG Oral Tablet [Arimidex]"
                },
                "quantity": {
                    "code": "{tablets}",
                    "system": "http://unitsofmeasure.org",
                    "unit": "tablets",
                    "value": 30
                },
                "resourceType": "MedicationDispense",
                "status": "completed",
                "subject": {
                    "reference": "Patient/nhs-1157764"
                },
                "text": {
                    "div": "<div xmlns=\"http://www.w3.org/1999/xhtml\">Dispensed 30 tablets = 30 day supply of anastrozole 1 MG Oral Tablet [Arimidex]</div>",
                    "status": "generated"
                },
                "whenHandedOver": "2004-08-28",
                "meta": {
                    "tag": [
                        {
                            "system": "https://smarthealthit.org/tags",
                            "code": "nhs"
                        }
                    ]
                }
            },
            "fullUrl": "/MedicationDispense/nhs-MedicationDispense-919"
        },
        {
            "request": {
                "method": "PUT",
                "url": "MedicationDispense/nhs-MedicationDispense-918"
            },
            "resource": {
                "authorizingPrescription": [
                    {
                        "reference": "MedicationRequest/nhs-MedicationRequest-128"
                    }
                ],
                "daysSupply": {
                    "code": "d",
                    "system": "http://unitsofmeasure.org",
                    "unit": "days",
                    "value": 30
                },
                "id": "nhs-MedicationDispense-918",
                "medicationCodeableConcept": {
                    "coding": [
                        {
                            "code": "151124",
                            "display": "anastrozole 1 MG Oral Tablet [Arimidex]",
                            "system": "http://www.nlm.nih.gov/research/umls/rxnorm"
                        }
                    ],
                    "text": "anastrozole 1 MG Oral Tablet [Arimidex]"
                },
                "quantity": {
                    "code": "{tablets}",
                    "system": "http://unitsofmeasure.org",
                    "unit": "tablets",
                    "value": 30
                },
                "resourceType": "MedicationDispense",
                "status": "completed",
                "subject": {
                    "reference": "Patient/nhs-1157764"
                },
                "text": {
                    "div": "<div xmlns=\"http://www.w3.org/1999/xhtml\">Dispensed 30 tablets = 30 day supply of anastrozole 1 MG Oral Tablet [Arimidex]</div>",
                    "status": "generated"
                },
                "whenHandedOver": "2004-07-28",
                "meta": {
                    "tag": [
                        {
                            "system": "https://smarthealthit.org/tags",
                            "code": "nhs"
                        }
                    ]
                }
            },
            "fullUrl": "/MedicationDispense/nhs-MedicationDispense-918"
        },
        {
            "request": {
                "method": "PUT",
                "url": "MedicationDispense/nhs-MedicationDispense-932"
            },
            "resource": {
                "authorizingPrescription": [
                    {
                        "reference": "MedicationRequest/nhs-MedicationRequest-128"
                    }
                ],
                "daysSupply": {
                    "code": "d",
                    "system": "http://unitsofmeasure.org",
                    "unit": "days",
                    "value": 30
                },
                "id": "nhs-MedicationDispense-932",
                "medicationCodeableConcept": {
                    "coding": [
                        {
                            "code": "151124",
                            "display": "anastrozole 1 MG Oral Tablet [Arimidex]",
                            "system": "http://www.nlm.nih.gov/research/umls/rxnorm"
                        }
                    ],
                    "text": "anastrozole 1 MG Oral Tablet [Arimidex]"
                },
                "quantity": {
                    "code": "{tablets}",
                    "system": "http://unitsofmeasure.org",
                    "unit": "tablets",
                    "value": 30
                },
                "resourceType": "MedicationDispense",
                "status": "completed",
                "subject": {
                    "reference": "Patient/nhs-1157764"
                },
                "text": {
                    "div": "<div xmlns=\"http://www.w3.org/1999/xhtml\">Dispensed 30 tablets = 30 day supply of anastrozole 1 MG Oral Tablet [Arimidex]</div>",
                    "status": "generated"
                },
                "whenHandedOver": "2005-11-02",
                "meta": {
                    "tag": [
                        {
                            "system": "https://smarthealthit.org/tags",
                            "code": "nhs"
                        }
                    ]
                }
            },
            "fullUrl": "/MedicationDispense/nhs-MedicationDispense-932"
        },
        {
            "request": {
                "method": "PUT",
                "url": "MedicationDispense/nhs-MedicationDispense-922"
            },
            "resource": {
                "authorizingPrescription": [
                    {
                        "reference": "MedicationRequest/nhs-MedicationRequest-128"
                    }
                ],
                "daysSupply": {
                    "code": "d",
                    "system": "http://unitsofmeasure.org",
                    "unit": "days",
                    "value": 30
                },
                "id": "nhs-MedicationDispense-922",
                "medicationCodeableConcept": {
                    "coding": [
                        {
                            "code": "151124",
                            "display": "anastrozole 1 MG Oral Tablet [Arimidex]",
                            "system": "http://www.nlm.nih.gov/research/umls/rxnorm"
                        }
                    ],
                    "text": "anastrozole 1 MG Oral Tablet [Arimidex]"
                },
                "quantity": {
                    "code": "{tablets}",
                    "system": "http://unitsofmeasure.org",
                    "unit": "tablets",
                    "value": 30
                },
                "resourceType": "MedicationDispense",
                "status": "completed",
                "subject": {
                    "reference": "Patient/nhs-1157764"
                },
                "text": {
                    "div": "<div xmlns=\"http://www.w3.org/1999/xhtml\">Dispensed 30 tablets = 30 day supply of anastrozole 1 MG Oral Tablet [Arimidex]</div>",
                    "status": "generated"
                },
                "whenHandedOver": "2004-11-25",
                "meta": {
                    "tag": [
                        {
                            "system": "https://smarthealthit.org/tags",
                            "code": "nhs"
                        }
                    ]
                }
            },
            "fullUrl": "/MedicationDispense/nhs-MedicationDispense-922"
        },
        {
            "request": {
                "method": "PUT",
                "url": "MedicationDispense/nhs-MedicationDispense-910"
            },
            "resource": {
                "authorizingPrescription": [
                    {
                        "reference": "MedicationRequest/nhs-MedicationRequest-128"
                    }
                ],
                "daysSupply": {
                    "code": "d",
                    "system": "http://unitsofmeasure.org",
                    "unit": "days",
                    "value": 30
                },
                "id": "nhs-MedicationDispense-910",
                "medicationCodeableConcept": {
                    "coding": [
                        {
                            "code": "151124",
                            "display": "anastrozole 1 MG Oral Tablet [Arimidex]",
                            "system": "http://www.nlm.nih.gov/research/umls/rxnorm"
                        }
                    ],
                    "text": "anastrozole 1 MG Oral Tablet [Arimidex]"
                },
                "quantity": {
                    "code": "{tablets}",
                    "system": "http://unitsofmeasure.org",
                    "unit": "tablets",
                    "value": 30
                },
                "resourceType": "MedicationDispense",
                "status": "completed",
                "subject": {
                    "reference": "Patient/nhs-1157764"
                },
                "text": {
                    "div": "<div xmlns=\"http://www.w3.org/1999/xhtml\">Dispensed 30 tablets = 30 day supply of anastrozole 1 MG Oral Tablet [Arimidex]</div>",
                    "status": "generated"
                },
                "whenHandedOver": "2003-10-23",
                "meta": {
                    "tag": [
                        {
                            "system": "https://smarthealthit.org/tags",
                            "code": "nhs"
                        }
                    ]
                }
            },
            "fullUrl": "/MedicationDispense/nhs-MedicationDispense-910"
        },
        {
            "request": {
                "method": "PUT",
                "url": "MedicationDispense/nhs-MedicationDispense-914"
            },
            "resource": {
                "authorizingPrescription": [
                    {
                        "reference": "MedicationRequest/nhs-MedicationRequest-128"
                    }
                ],
                "daysSupply": {
                    "code": "d",
                    "system": "http://unitsofmeasure.org",
                    "unit": "days",
                    "value": 30
                },
                "id": "nhs-MedicationDispense-914",
                "medicationCodeableConcept": {
                    "coding": [
                        {
                            "code": "151124",
                            "display": "anastrozole 1 MG Oral Tablet [Arimidex]",
                            "system": "http://www.nlm.nih.gov/research/umls/rxnorm"
                        }
                    ],
                    "text": "anastrozole 1 MG Oral Tablet [Arimidex]"
                },
                "quantity": {
                    "code": "{tablets}",
                    "system": "http://unitsofmeasure.org",
                    "unit": "tablets",
                    "value": 30
                },
                "resourceType": "MedicationDispense",
                "status": "completed",
                "subject": {
                    "reference": "Patient/nhs-1157764"
                },
                "text": {
                    "div": "<div xmlns=\"http://www.w3.org/1999/xhtml\">Dispensed 30 tablets = 30 day supply of anastrozole 1 MG Oral Tablet [Arimidex]</div>",
                    "status": "generated"
                },
                "whenHandedOver": "2004-02-18",
                "meta": {
                    "tag": [
                        {
                            "system": "https://smarthealthit.org/tags",
                            "code": "nhs"
                        }
                    ]
                }
            },
            "fullUrl": "/MedicationDispense/nhs-MedicationDispense-914"
        },
        {
            "request": {
                "method": "PUT",
                "url": "MedicationDispense/nhs-MedicationDispense-929"
            },
            "resource": {
                "authorizingPrescription": [
                    {
                        "reference": "MedicationRequest/nhs-MedicationRequest-128"
                    }
                ],
                "daysSupply": {
                    "code": "d",
                    "system": "http://unitsofmeasure.org",
                    "unit": "days",
                    "value": 30
                },
                "id": "nhs-MedicationDispense-929",
                "medicationCodeableConcept": {
                    "coding": [
                        {
                            "code": "151124",
                            "display": "anastrozole 1 MG Oral Tablet [Arimidex]",
                            "system": "http://www.nlm.nih.gov/research/umls/rxnorm"
                        }
                    ],
                    "text": "anastrozole 1 MG Oral Tablet [Arimidex]"
                },
                "quantity": {
                    "code": "{tablets}",
                    "system": "http://unitsofmeasure.org",
                    "unit": "tablets",
                    "value": 30
                },
                "resourceType": "MedicationDispense",
                "status": "completed",
                "subject": {
                    "reference": "Patient/nhs-1157764"
                },
                "text": {
                    "div": "<div xmlns=\"http://www.w3.org/1999/xhtml\">Dispensed 30 tablets = 30 day supply of anastrozole 1 MG Oral Tablet [Arimidex]</div>",
                    "status": "generated"
                },
                "whenHandedOver": "2005-08-03",
                "meta": {
                    "tag": [
                        {
                            "system": "https://smarthealthit.org/tags",
                            "code": "nhs"
                        }
                    ]
                }
            },
            "fullUrl": "/MedicationDispense/nhs-MedicationDispense-929"
        },
        {
            "request": {
                "method": "PUT",
                "url": "MedicationDispense/nhs-MedicationDispense-935"
            },
            "resource": {
                "authorizingPrescription": [
                    {
                        "reference": "MedicationRequest/nhs-MedicationRequest-128"
                    }
                ],
                "daysSupply": {
                    "code": "d",
                    "system": "http://unitsofmeasure.org",
                    "unit": "days",
                    "value": 30
                },
                "id": "nhs-MedicationDispense-935",
                "medicationCodeableConcept": {
                    "coding": [
                        {
                            "code": "151124",
                            "display": "anastrozole 1 MG Oral Tablet [Arimidex]",
                            "system": "http://www.nlm.nih.gov/research/umls/rxnorm"
                        }
                    ],
                    "text": "anastrozole 1 MG Oral Tablet [Arimidex]"
                },
                "quantity": {
                    "code": "{tablets}",
                    "system": "http://unitsofmeasure.org",
                    "unit": "tablets",
                    "value": 30
                },
                "resourceType": "MedicationDispense",
                "status": "completed",
                "subject": {
                    "reference": "Patient/nhs-1157764"
                },
                "text": {
                    "div": "<div xmlns=\"http://www.w3.org/1999/xhtml\">Dispensed 30 tablets = 30 day supply of anastrozole 1 MG Oral Tablet [Arimidex]</div>",
                    "status": "generated"
                },
                "whenHandedOver": "2006-01-31",
                "meta": {
                    "tag": [
                        {
                            "system": "https://smarthealthit.org/tags",
                            "code": "nhs"
                        }
                    ]
                }
            },
            "fullUrl": "/MedicationDispense/nhs-MedicationDispense-935"
        },
        {
            "request": {
                "method": "PUT",
                "url": "MedicationRequest/nhs-MedicationRequest-129"
            },
            "resource": {
                "dispenseRequest": {
                    "expectedSupplyDuration": {
                        "code": "d",
                        "system": "http://unitsofmeasure.org",
                        "unit": "days",
                        "value": 30
                    },
                    "numberOfRepeatsAllowed": 1,
                    "quantity": {
                        "code": "{tablet}",
                        "system": "http://unitsofmeasure.org",
                        "unit": "{tablet}",
                        "value": 4
                    }
                },
                "dosageInstruction": [
                    {
                        "doseQuantity": {
                            "code": "{tablet}",
                            "system": "http://unitsofmeasure.org",
                            "unit": "{tablet}",
                            "value": 1
                        },
                        "text": "1 weekly",
                        "timing": {
                            "repeat": {
                                "boundsPeriod": {
                                    "start": "2003-11-02"
                                },
                                "frequency": 1,
                                "period": 1,
                                "periodUnit": "wk"
                            }
                        }
                    }
                ],
                "id": "nhs-MedicationRequest-129",
                "intent": "order",
                "medicationCodeableConcept": {
                    "coding": [
                        {
                            "code": "877300",
                            "display": "{4 (Risedronate 35 MG Oral Tablet [Actonel]) } Pack [Actonel 35]",
                            "system": "http://www.nlm.nih.gov/research/umls/rxnorm"
                        }
                    ],
                    "text": "{4 (Risedronate 35 MG Oral Tablet [Actonel]) } Pack [Actonel 35]"
                },
                "resourceType": "MedicationRequest",
                "status": "active",
                "subject": {
                    "reference": "Patient/nhs-1157764"
                },
                "text": {
                    "div": "<div xmlns=\"http://www.w3.org/1999/xhtml\">{4 (Risedronate 35 MG Oral Tablet [Actonel]) } Pack [Actonel 35] (rxnorm: 877300)</div>",
                    "status": "generated"
                },
                "meta": {
                    "tag": [
                        {
                            "system": "https://smarthealthit.org/tags",
                            "code": "nhs"
                        }
                    ]
                }
            },
            "fullUrl": "/MedicationRequest/nhs-MedicationRequest-129"
        },
        {
            "request": {
                "method": "PUT",
                "url": "MedicationDispense/nhs-MedicationDispense-898"
            },
            "resource": {
                "authorizingPrescription": [
                    {
                        "reference": "MedicationRequest/nhs-MedicationRequest-129"
                    }
                ],
                "daysSupply": {
                    "code": "d",
                    "system": "http://unitsofmeasure.org",
                    "unit": "days",
                    "value": 30
                },
                "id": "nhs-MedicationDispense-898",
                "medicationCodeableConcept": {
                    "coding": [
                        {
                            "code": "877300",
                            "display": "{4 (Risedronate 35 MG Oral Tablet [Actonel]) } Pack [Actonel 35]",
                            "system": "http://www.nlm.nih.gov/research/umls/rxnorm"
                        }
                    ],
                    "text": "{4 (Risedronate 35 MG Oral Tablet [Actonel]) } Pack [Actonel 35]"
                },
                "quantity": {
                    "code": "{tablets}",
                    "system": "http://unitsofmeasure.org",
                    "unit": "tablets",
                    "value": 4
                },
                "resourceType": "MedicationDispense",
                "status": "completed",
                "subject": {
                    "reference": "Patient/nhs-1157764"
                },
                "text": {
                    "div": "<div xmlns=\"http://www.w3.org/1999/xhtml\">Dispensed 4 tablets = 30 day supply of {4 (Risedronate 35 MG Oral Tablet [Actonel]) } Pack [Actonel 35]</div>",
                    "status": "generated"
                },
                "whenHandedOver": "2005-02-20",
                "meta": {
                    "tag": [
                        {
                            "system": "https://smarthealthit.org/tags",
                            "code": "nhs"
                        }
                    ]
                }
            },
            "fullUrl": "/MedicationDispense/nhs-MedicationDispense-898"
        },
        {
            "request": {
                "method": "PUT",
                "url": "MedicationDispense/nhs-MedicationDispense-889"
            },
            "resource": {
                "authorizingPrescription": [
                    {
                        "reference": "MedicationRequest/nhs-MedicationRequest-129"
                    }
                ],
                "daysSupply": {
                    "code": "d",
                    "system": "http://unitsofmeasure.org",
                    "unit": "days",
                    "value": 30
                },
                "id": "nhs-MedicationDispense-889",
                "medicationCodeableConcept": {
                    "coding": [
                        {
                            "code": "877300",
                            "display": "{4 (Risedronate 35 MG Oral Tablet [Actonel]) } Pack [Actonel 35]",
                            "system": "http://www.nlm.nih.gov/research/umls/rxnorm"
                        }
                    ],
                    "text": "{4 (Risedronate 35 MG Oral Tablet [Actonel]) } Pack [Actonel 35]"
                },
                "quantity": {
                    "code": "{tablets}",
                    "system": "http://unitsofmeasure.org",
                    "unit": "tablets",
                    "value": 4
                },
                "resourceType": "MedicationDispense",
                "status": "completed",
                "subject": {
                    "reference": "Patient/nhs-1157764"
                },
                "text": {
                    "div": "<div xmlns=\"http://www.w3.org/1999/xhtml\">Dispensed 4 tablets = 30 day supply of {4 (Risedronate 35 MG Oral Tablet [Actonel]) } Pack [Actonel 35]</div>",
                    "status": "generated"
                },
                "whenHandedOver": "2004-06-09",
                "meta": {
                    "tag": [
                        {
                            "system": "https://smarthealthit.org/tags",
                            "code": "nhs"
                        }
                    ]
                }
            },
            "fullUrl": "/MedicationDispense/nhs-MedicationDispense-889"
        },
        {
            "request": {
                "method": "PUT",
                "url": "MedicationDispense/nhs-MedicationDispense-908"
            },
            "resource": {
                "authorizingPrescription": [
                    {
                        "reference": "MedicationRequest/nhs-MedicationRequest-129"
                    }
                ],
                "daysSupply": {
                    "code": "d",
                    "system": "http://unitsofmeasure.org",
                    "unit": "days",
                    "value": 30
                },
                "id": "nhs-MedicationDispense-908",
                "medicationCodeableConcept": {
                    "coding": [
                        {
                            "code": "877300",
                            "display": "{4 (Risedronate 35 MG Oral Tablet [Actonel]) } Pack [Actonel 35]",
                            "system": "http://www.nlm.nih.gov/research/umls/rxnorm"
                        }
                    ],
                    "text": "{4 (Risedronate 35 MG Oral Tablet [Actonel]) } Pack [Actonel 35]"
                },
                "quantity": {
                    "code": "{tablets}",
                    "system": "http://unitsofmeasure.org",
                    "unit": "tablets",
                    "value": 4
                },
                "resourceType": "MedicationDispense",
                "status": "completed",
                "subject": {
                    "reference": "Patient/nhs-1157764"
                },
                "text": {
                    "div": "<div xmlns=\"http://www.w3.org/1999/xhtml\">Dispensed 4 tablets = 30 day supply of {4 (Risedronate 35 MG Oral Tablet [Actonel]) } Pack [Actonel 35]</div>",
                    "status": "generated"
                },
                "whenHandedOver": "2005-12-25",
                "meta": {
                    "tag": [
                        {
                            "system": "https://smarthealthit.org/tags",
                            "code": "nhs"
                        }
                    ]
                }
            },
            "fullUrl": "/MedicationDispense/nhs-MedicationDispense-908"
        },
        {
            "request": {
                "method": "PUT",
                "url": "MedicationDispense/nhs-MedicationDispense-890"
            },
            "resource": {
                "authorizingPrescription": [
                    {
                        "reference": "MedicationRequest/nhs-MedicationRequest-129"
                    }
                ],
                "daysSupply": {
                    "code": "d",
                    "system": "http://unitsofmeasure.org",
                    "unit": "days",
                    "value": 30
                },
                "id": "nhs-MedicationDispense-890",
                "medicationCodeableConcept": {
                    "coding": [
                        {
                            "code": "877300",
                            "display": "{4 (Risedronate 35 MG Oral Tablet [Actonel]) } Pack [Actonel 35]",
                            "system": "http://www.nlm.nih.gov/research/umls/rxnorm"
                        }
                    ],
                    "text": "{4 (Risedronate 35 MG Oral Tablet [Actonel]) } Pack [Actonel 35]"
                },
                "quantity": {
                    "code": "{tablets}",
                    "system": "http://unitsofmeasure.org",
                    "unit": "tablets",
                    "value": 4
                },
                "resourceType": "MedicationDispense",
                "status": "completed",
                "subject": {
                    "reference": "Patient/nhs-1157764"
                },
                "text": {
                    "div": "<div xmlns=\"http://www.w3.org/1999/xhtml\">Dispensed 4 tablets = 30 day supply of {4 (Risedronate 35 MG Oral Tablet [Actonel]) } Pack [Actonel 35]</div>",
                    "status": "generated"
                },
                "whenHandedOver": "2004-07-06",
                "meta": {
                    "tag": [
                        {
                            "system": "https://smarthealthit.org/tags",
                            "code": "nhs"
                        }
                    ]
                }
            },
            "fullUrl": "/MedicationDispense/nhs-MedicationDispense-890"
        },
        {
            "request": {
                "method": "PUT",
                "url": "MedicationDispense/nhs-MedicationDispense-891"
            },
            "resource": {
                "authorizingPrescription": [
                    {
                        "reference": "MedicationRequest/nhs-MedicationRequest-129"
                    }
                ],
                "daysSupply": {
                    "code": "d",
                    "system": "http://unitsofmeasure.org",
                    "unit": "days",
                    "value": 30
                },
                "id": "nhs-MedicationDispense-891",
                "medicationCodeableConcept": {
                    "coding": [
                        {
                            "code": "877300",
                            "display": "{4 (Risedronate 35 MG Oral Tablet [Actonel]) } Pack [Actonel 35]",
                            "system": "http://www.nlm.nih.gov/research/umls/rxnorm"
                        }
                    ],
                    "text": "{4 (Risedronate 35 MG Oral Tablet [Actonel]) } Pack [Actonel 35]"
                },
                "quantity": {
                    "code": "{tablets}",
                    "system": "http://unitsofmeasure.org",
                    "unit": "tablets",
                    "value": 4
                },
                "resourceType": "MedicationDispense",
                "status": "completed",
                "subject": {
                    "reference": "Patient/nhs-1157764"
                },
                "text": {
                    "div": "<div xmlns=\"http://www.w3.org/1999/xhtml\">Dispensed 4 tablets = 30 day supply of {4 (Risedronate 35 MG Oral Tablet [Actonel]) } Pack [Actonel 35]</div>",
                    "status": "generated"
                },
                "whenHandedOver": "2004-08-04",
                "meta": {
                    "tag": [
                        {
                            "system": "https://smarthealthit.org/tags",
                            "code": "nhs"
                        }
                    ]
                }
            },
            "fullUrl": "/MedicationDispense/nhs-MedicationDispense-891"
        },
        {
            "request": {
                "method": "PUT",
                "url": "MedicationDispense/nhs-MedicationDispense-902"
            },
            "resource": {
                "authorizingPrescription": [
                    {
                        "reference": "MedicationRequest/nhs-MedicationRequest-129"
                    }
                ],
                "daysSupply": {
                    "code": "d",
                    "system": "http://unitsofmeasure.org",
                    "unit": "days",
                    "value": 30
                },
                "id": "nhs-MedicationDispense-902",
                "medicationCodeableConcept": {
                    "coding": [
                        {
                            "code": "877300",
                            "display": "{4 (Risedronate 35 MG Oral Tablet [Actonel]) } Pack [Actonel 35]",
                            "system": "http://www.nlm.nih.gov/research/umls/rxnorm"
                        }
                    ],
                    "text": "{4 (Risedronate 35 MG Oral Tablet [Actonel]) } Pack [Actonel 35]"
                },
                "quantity": {
                    "code": "{tablets}",
                    "system": "http://unitsofmeasure.org",
                    "unit": "tablets",
                    "value": 4
                },
                "resourceType": "MedicationDispense",
                "status": "completed",
                "subject": {
                    "reference": "Patient/nhs-1157764"
                },
                "text": {
                    "div": "<div xmlns=\"http://www.w3.org/1999/xhtml\">Dispensed 4 tablets = 30 day supply of {4 (Risedronate 35 MG Oral Tablet [Actonel]) } Pack [Actonel 35]</div>",
                    "status": "generated"
                },
                "whenHandedOver": "2005-06-08",
                "meta": {
                    "tag": [
                        {
                            "system": "https://smarthealthit.org/tags",
                            "code": "nhs"
                        }
                    ]
                }
            },
            "fullUrl": "/MedicationDispense/nhs-MedicationDispense-902"
        },
        {
            "request": {
                "method": "PUT",
                "url": "MedicationDispense/nhs-MedicationDispense-899"
            },
            "resource": {
                "authorizingPrescription": [
                    {
                        "reference": "MedicationRequest/nhs-MedicationRequest-129"
                    }
                ],
                "daysSupply": {
                    "code": "d",
                    "system": "http://unitsofmeasure.org",
                    "unit": "days",
                    "value": 30
                },
                "id": "nhs-MedicationDispense-899",
                "medicationCodeableConcept": {
                    "coding": [
                        {
                            "code": "877300",
                            "display": "{4 (Risedronate 35 MG Oral Tablet [Actonel]) } Pack [Actonel 35]",
                            "system": "http://www.nlm.nih.gov/research/umls/rxnorm"
                        }
                    ],
                    "text": "{4 (Risedronate 35 MG Oral Tablet [Actonel]) } Pack [Actonel 35]"
                },
                "quantity": {
                    "code": "{tablets}",
                    "system": "http://unitsofmeasure.org",
                    "unit": "tablets",
                    "value": 4
                },
                "resourceType": "MedicationDispense",
                "status": "completed",
                "subject": {
                    "reference": "Patient/nhs-1157764"
                },
                "text": {
                    "div": "<div xmlns=\"http://www.w3.org/1999/xhtml\">Dispensed 4 tablets = 30 day supply of {4 (Risedronate 35 MG Oral Tablet [Actonel]) } Pack [Actonel 35]</div>",
                    "status": "generated"
                },
                "whenHandedOver": "2005-03-19",
                "meta": {
                    "tag": [
                        {
                            "system": "https://smarthealthit.org/tags",
                            "code": "nhs"
                        }
                    ]
                }
            },
            "fullUrl": "/MedicationDispense/nhs-MedicationDispense-899"
        },
        {
            "request": {
                "method": "PUT",
                "url": "MedicationDispense/nhs-MedicationDispense-884"
            },
            "resource": {
                "authorizingPrescription": [
                    {
                        "reference": "MedicationRequest/nhs-MedicationRequest-129"
                    }
                ],
                "daysSupply": {
                    "code": "d",
                    "system": "http://unitsofmeasure.org",
                    "unit": "days",
                    "value": 30
                },
                "id": "nhs-MedicationDispense-884",
                "medicationCodeableConcept": {
                    "coding": [
                        {
                            "code": "877300",
                            "display": "{4 (Risedronate 35 MG Oral Tablet [Actonel]) } Pack [Actonel 35]",
                            "system": "http://www.nlm.nih.gov/research/umls/rxnorm"
                        }
                    ],
                    "text": "{4 (Risedronate 35 MG Oral Tablet [Actonel]) } Pack [Actonel 35]"
                },
                "quantity": {
                    "code": "{tablets}",
                    "system": "http://unitsofmeasure.org",
                    "unit": "tablets",
                    "value": 4
                },
                "resourceType": "MedicationDispense",
                "status": "completed",
                "subject": {
                    "reference": "Patient/nhs-1157764"
                },
                "text": {
                    "div": "<div xmlns=\"http://www.w3.org/1999/xhtml\">Dispensed 4 tablets = 30 day supply of {4 (Risedronate 35 MG Oral Tablet [Actonel]) } Pack [Actonel 35]</div>",
                    "status": "generated"
                },
                "whenHandedOver": "2004-01-20",
                "meta": {
                    "tag": [
                        {
                            "system": "https://smarthealthit.org/tags",
                            "code": "nhs"
                        }
                    ]
                }
            },
            "fullUrl": "/MedicationDispense/nhs-MedicationDispense-884"
        },
        {
            "request": {
                "method": "PUT",
                "url": "MedicationDispense/nhs-MedicationDispense-892"
            },
            "resource": {
                "authorizingPrescription": [
                    {
                        "reference": "MedicationRequest/nhs-MedicationRequest-129"
                    }
                ],
                "daysSupply": {
                    "code": "d",
                    "system": "http://unitsofmeasure.org",
                    "unit": "days",
                    "value": 30
                },
                "id": "nhs-MedicationDispense-892",
                "medicationCodeableConcept": {
                    "coding": [
                        {
                            "code": "877300",
                            "display": "{4 (Risedronate 35 MG Oral Tablet [Actonel]) } Pack [Actonel 35]",
                            "system": "http://www.nlm.nih.gov/research/umls/rxnorm"
                        }
                    ],
                    "text": "{4 (Risedronate 35 MG Oral Tablet [Actonel]) } Pack [Actonel 35]"
                },
                "quantity": {
                    "code": "{tablets}",
                    "system": "http://unitsofmeasure.org",
                    "unit": "tablets",
                    "value": 4
                },
                "resourceType": "MedicationDispense",
                "status": "completed",
                "subject": {
                    "reference": "Patient/nhs-1157764"
                },
                "text": {
                    "div": "<div xmlns=\"http://www.w3.org/1999/xhtml\">Dispensed 4 tablets = 30 day supply of {4 (Risedronate 35 MG Oral Tablet [Actonel]) } Pack [Actonel 35]</div>",
                    "status": "generated"
                },
                "whenHandedOver": "2004-09-04",
                "meta": {
                    "tag": [
                        {
                            "system": "https://smarthealthit.org/tags",
                            "code": "nhs"
                        }
                    ]
                }
            },
            "fullUrl": "/MedicationDispense/nhs-MedicationDispense-892"
        },
        {
            "request": {
                "method": "PUT",
                "url": "MedicationDispense/nhs-MedicationDispense-905"
            },
            "resource": {
                "authorizingPrescription": [
                    {
                        "reference": "MedicationRequest/nhs-MedicationRequest-129"
                    }
                ],
                "daysSupply": {
                    "code": "d",
                    "system": "http://unitsofmeasure.org",
                    "unit": "days",
                    "value": 30
                },
                "id": "nhs-MedicationDispense-905",
                "medicationCodeableConcept": {
                    "coding": [
                        {
                            "code": "877300",
                            "display": "{4 (Risedronate 35 MG Oral Tablet [Actonel]) } Pack [Actonel 35]",
                            "system": "http://www.nlm.nih.gov/research/umls/rxnorm"
                        }
                    ],
                    "text": "{4 (Risedronate 35 MG Oral Tablet [Actonel]) } Pack [Actonel 35]"
                },
                "quantity": {
                    "code": "{tablets}",
                    "system": "http://unitsofmeasure.org",
                    "unit": "tablets",
                    "value": 4
                },
                "resourceType": "MedicationDispense",
                "status": "completed",
                "subject": {
                    "reference": "Patient/nhs-1157764"
                },
                "text": {
                    "div": "<div xmlns=\"http://www.w3.org/1999/xhtml\">Dispensed 4 tablets = 30 day supply of {4 (Risedronate 35 MG Oral Tablet [Actonel]) } Pack [Actonel 35]</div>",
                    "status": "generated"
                },
                "whenHandedOver": "2005-09-02",
                "meta": {
                    "tag": [
                        {
                            "system": "https://smarthealthit.org/tags",
                            "code": "nhs"
                        }
                    ]
                }
            },
            "fullUrl": "/MedicationDispense/nhs-MedicationDispense-905"
        },
        {
            "request": {
                "method": "PUT",
                "url": "MedicationDispense/nhs-MedicationDispense-886"
            },
            "resource": {
                "authorizingPrescription": [
                    {
                        "reference": "MedicationRequest/nhs-MedicationRequest-129"
                    }
                ],
                "daysSupply": {
                    "code": "d",
                    "system": "http://unitsofmeasure.org",
                    "unit": "days",
                    "value": 30
                },
                "id": "nhs-MedicationDispense-886",
                "medicationCodeableConcept": {
                    "coding": [
                        {
                            "code": "877300",
                            "display": "{4 (Risedronate 35 MG Oral Tablet [Actonel]) } Pack [Actonel 35]",
                            "system": "http://www.nlm.nih.gov/research/umls/rxnorm"
                        }
                    ],
                    "text": "{4 (Risedronate 35 MG Oral Tablet [Actonel]) } Pack [Actonel 35]"
                },
                "quantity": {
                    "code": "{tablets}",
                    "system": "http://unitsofmeasure.org",
                    "unit": "tablets",
                    "value": 4
                },
                "resourceType": "MedicationDispense",
                "status": "completed",
                "subject": {
                    "reference": "Patient/nhs-1157764"
                },
                "text": {
                    "div": "<div xmlns=\"http://www.w3.org/1999/xhtml\">Dispensed 4 tablets = 30 day supply of {4 (Risedronate 35 MG Oral Tablet [Actonel]) } Pack [Actonel 35]</div>",
                    "status": "generated"
                },
                "whenHandedOver": "2004-03-20",
                "meta": {
                    "tag": [
                        {
                            "system": "https://smarthealthit.org/tags",
                            "code": "nhs"
                        }
                    ]
                }
            },
            "fullUrl": "/MedicationDispense/nhs-MedicationDispense-886"
        },
        {
            "request": {
                "method": "PUT",
                "url": "MedicationDispense/nhs-MedicationDispense-904"
            },
            "resource": {
                "authorizingPrescription": [
                    {
                        "reference": "MedicationRequest/nhs-MedicationRequest-129"
                    }
                ],
                "daysSupply": {
                    "code": "d",
                    "system": "http://unitsofmeasure.org",
                    "unit": "days",
                    "value": 30
                },
                "id": "nhs-MedicationDispense-904",
                "medicationCodeableConcept": {
                    "coding": [
                        {
                            "code": "877300",
                            "display": "{4 (Risedronate 35 MG Oral Tablet [Actonel]) } Pack [Actonel 35]",
                            "system": "http://www.nlm.nih.gov/research/umls/rxnorm"
                        }
                    ],
                    "text": "{4 (Risedronate 35 MG Oral Tablet [Actonel]) } Pack [Actonel 35]"
                },
                "quantity": {
                    "code": "{tablets}",
                    "system": "http://unitsofmeasure.org",
                    "unit": "tablets",
                    "value": 4
                },
                "resourceType": "MedicationDispense",
                "status": "completed",
                "subject": {
                    "reference": "Patient/nhs-1157764"
                },
                "text": {
                    "div": "<div xmlns=\"http://www.w3.org/1999/xhtml\">Dispensed 4 tablets = 30 day supply of {4 (Risedronate 35 MG Oral Tablet [Actonel]) } Pack [Actonel 35]</div>",
                    "status": "generated"
                },
                "whenHandedOver": "2005-08-03",
                "meta": {
                    "tag": [
                        {
                            "system": "https://smarthealthit.org/tags",
                            "code": "nhs"
                        }
                    ]
                }
            },
            "fullUrl": "/MedicationDispense/nhs-MedicationDispense-904"
        },
        {
            "request": {
                "method": "PUT",
                "url": "MedicationDispense/nhs-MedicationDispense-882"
            },
            "resource": {
                "authorizingPrescription": [
                    {
                        "reference": "MedicationRequest/nhs-MedicationRequest-129"
                    }
                ],
                "daysSupply": {
                    "code": "d",
                    "system": "http://unitsofmeasure.org",
                    "unit": "days",
                    "value": 30
                },
                "id": "nhs-MedicationDispense-882",
                "medicationCodeableConcept": {
                    "coding": [
                        {
                            "code": "877300",
                            "display": "{4 (Risedronate 35 MG Oral Tablet [Actonel]) } Pack [Actonel 35]",
                            "system": "http://www.nlm.nih.gov/research/umls/rxnorm"
                        }
                    ],
                    "text": "{4 (Risedronate 35 MG Oral Tablet [Actonel]) } Pack [Actonel 35]"
                },
                "quantity": {
                    "code": "{tablets}",
                    "system": "http://unitsofmeasure.org",
                    "unit": "tablets",
                    "value": 4
                },
                "resourceType": "MedicationDispense",
                "status": "completed",
                "subject": {
                    "reference": "Patient/nhs-1157764"
                },
                "text": {
                    "div": "<div xmlns=\"http://www.w3.org/1999/xhtml\">Dispensed 4 tablets = 30 day supply of {4 (Risedronate 35 MG Oral Tablet [Actonel]) } Pack [Actonel 35]</div>",
                    "status": "generated"
                },
                "whenHandedOver": "2003-11-30",
                "meta": {
                    "tag": [
                        {
                            "system": "https://smarthealthit.org/tags",
                            "code": "nhs"
                        }
                    ]
                }
            },
            "fullUrl": "/MedicationDispense/nhs-MedicationDispense-882"
        },
        {
            "request": {
                "method": "PUT",
                "url": "MedicationDispense/nhs-MedicationDispense-885"
            },
            "resource": {
                "authorizingPrescription": [
                    {
                        "reference": "MedicationRequest/nhs-MedicationRequest-129"
                    }
                ],
                "daysSupply": {
                    "code": "d",
                    "system": "http://unitsofmeasure.org",
                    "unit": "days",
                    "value": 30
                },
                "id": "nhs-MedicationDispense-885",
                "medicationCodeableConcept": {
                    "coding": [
                        {
                            "code": "877300",
                            "display": "{4 (Risedronate 35 MG Oral Tablet [Actonel]) } Pack [Actonel 35]",
                            "system": "http://www.nlm.nih.gov/research/umls/rxnorm"
                        }
                    ],
                    "text": "{4 (Risedronate 35 MG Oral Tablet [Actonel]) } Pack [Actonel 35]"
                },
                "quantity": {
                    "code": "{tablets}",
                    "system": "http://unitsofmeasure.org",
                    "unit": "tablets",
                    "value": 4
                },
                "resourceType": "MedicationDispense",
                "status": "completed",
                "subject": {
                    "reference": "Patient/nhs-1157764"
                },
                "text": {
                    "div": "<div xmlns=\"http://www.w3.org/1999/xhtml\">Dispensed 4 tablets = 30 day supply of {4 (Risedronate 35 MG Oral Tablet [Actonel]) } Pack [Actonel 35]</div>",
                    "status": "generated"
                },
                "whenHandedOver": "2004-02-18",
                "meta": {
                    "tag": [
                        {
                            "system": "https://smarthealthit.org/tags",
                            "code": "nhs"
                        }
                    ]
                }
            },
            "fullUrl": "/MedicationDispense/nhs-MedicationDispense-885"
        },
        {
            "request": {
                "method": "PUT",
                "url": "MedicationDispense/nhs-MedicationDispense-901"
            },
            "resource": {
                "authorizingPrescription": [
                    {
                        "reference": "MedicationRequest/nhs-MedicationRequest-129"
                    }
                ],
                "daysSupply": {
                    "code": "d",
                    "system": "http://unitsofmeasure.org",
                    "unit": "days",
                    "value": 30
                },
                "id": "nhs-MedicationDispense-901",
                "medicationCodeableConcept": {
                    "coding": [
                        {
                            "code": "877300",
                            "display": "{4 (Risedronate 35 MG Oral Tablet [Actonel]) } Pack [Actonel 35]",
                            "system": "http://www.nlm.nih.gov/research/umls/rxnorm"
                        }
                    ],
                    "text": "{4 (Risedronate 35 MG Oral Tablet [Actonel]) } Pack [Actonel 35]"
                },
                "quantity": {
                    "code": "{tablets}",
                    "system": "http://unitsofmeasure.org",
                    "unit": "tablets",
                    "value": 4
                },
                "resourceType": "MedicationDispense",
                "status": "completed",
                "subject": {
                    "reference": "Patient/nhs-1157764"
                },
                "text": {
                    "div": "<div xmlns=\"http://www.w3.org/1999/xhtml\">Dispensed 4 tablets = 30 day supply of {4 (Risedronate 35 MG Oral Tablet [Actonel]) } Pack [Actonel 35]</div>",
                    "status": "generated"
                },
                "whenHandedOver": "2005-05-15",
                "meta": {
                    "tag": [
                        {
                            "system": "https://smarthealthit.org/tags",
                            "code": "nhs"
                        }
                    ]
                }
            },
            "fullUrl": "/MedicationDispense/nhs-MedicationDispense-901"
        },
        {
            "request": {
                "method": "PUT",
                "url": "MedicationDispense/nhs-MedicationDispense-896"
            },
            "resource": {
                "authorizingPrescription": [
                    {
                        "reference": "MedicationRequest/nhs-MedicationRequest-129"
                    }
                ],
                "daysSupply": {
                    "code": "d",
                    "system": "http://unitsofmeasure.org",
                    "unit": "days",
                    "value": 30
                },
                "id": "nhs-MedicationDispense-896",
                "medicationCodeableConcept": {
                    "coding": [
                        {
                            "code": "877300",
                            "display": "{4 (Risedronate 35 MG Oral Tablet [Actonel]) } Pack [Actonel 35]",
                            "system": "http://www.nlm.nih.gov/research/umls/rxnorm"
                        }
                    ],
                    "text": "{4 (Risedronate 35 MG Oral Tablet [Actonel]) } Pack [Actonel 35]"
                },
                "quantity": {
                    "code": "{tablets}",
                    "system": "http://unitsofmeasure.org",
                    "unit": "tablets",
                    "value": 4
                },
                "resourceType": "MedicationDispense",
                "status": "completed",
                "subject": {
                    "reference": "Patient/nhs-1157764"
                },
                "text": {
                    "div": "<div xmlns=\"http://www.w3.org/1999/xhtml\">Dispensed 4 tablets = 30 day supply of {4 (Risedronate 35 MG Oral Tablet [Actonel]) } Pack [Actonel 35]</div>",
                    "status": "generated"
                },
                "whenHandedOver": "2004-12-26",
                "meta": {
                    "tag": [
                        {
                            "system": "https://smarthealthit.org/tags",
                            "code": "nhs"
                        }
                    ]
                }
            },
            "fullUrl": "/MedicationDispense/nhs-MedicationDispense-896"
        },
        {
            "request": {
                "method": "PUT",
                "url": "MedicationDispense/nhs-MedicationDispense-895"
            },
            "resource": {
                "authorizingPrescription": [
                    {
                        "reference": "MedicationRequest/nhs-MedicationRequest-129"
                    }
                ],
                "daysSupply": {
                    "code": "d",
                    "system": "http://unitsofmeasure.org",
                    "unit": "days",
                    "value": 30
                },
                "id": "nhs-MedicationDispense-895",
                "medicationCodeableConcept": {
                    "coding": [
                        {
                            "code": "877300",
                            "display": "{4 (Risedronate 35 MG Oral Tablet [Actonel]) } Pack [Actonel 35]",
                            "system": "http://www.nlm.nih.gov/research/umls/rxnorm"
                        }
                    ],
                    "text": "{4 (Risedronate 35 MG Oral Tablet [Actonel]) } Pack [Actonel 35]"
                },
                "quantity": {
                    "code": "{tablets}",
                    "system": "http://unitsofmeasure.org",
                    "unit": "tablets",
                    "value": 4
                },
                "resourceType": "MedicationDispense",
                "status": "completed",
                "subject": {
                    "reference": "Patient/nhs-1157764"
                },
                "text": {
                    "div": "<div xmlns=\"http://www.w3.org/1999/xhtml\">Dispensed 4 tablets = 30 day supply of {4 (Risedronate 35 MG Oral Tablet [Actonel]) } Pack [Actonel 35]</div>",
                    "status": "generated"
                },
                "whenHandedOver": "2004-11-25",
                "meta": {
                    "tag": [
                        {
                            "system": "https://smarthealthit.org/tags",
                            "code": "nhs"
                        }
                    ]
                }
            },
            "fullUrl": "/MedicationDispense/nhs-MedicationDispense-895"
        },
        {
            "request": {
                "method": "PUT",
                "url": "MedicationDispense/nhs-MedicationDispense-883"
            },
            "resource": {
                "authorizingPrescription": [
                    {
                        "reference": "MedicationRequest/nhs-MedicationRequest-129"
                    }
                ],
                "daysSupply": {
                    "code": "d",
                    "system": "http://unitsofmeasure.org",
                    "unit": "days",
                    "value": 30
                },
                "id": "nhs-MedicationDispense-883",
                "medicationCodeableConcept": {
                    "coding": [
                        {
                            "code": "877300",
                            "display": "{4 (Risedronate 35 MG Oral Tablet [Actonel]) } Pack [Actonel 35]",
                            "system": "http://www.nlm.nih.gov/research/umls/rxnorm"
                        }
                    ],
                    "text": "{4 (Risedronate 35 MG Oral Tablet [Actonel]) } Pack [Actonel 35]"
                },
                "quantity": {
                    "code": "{tablets}",
                    "system": "http://unitsofmeasure.org",
                    "unit": "tablets",
                    "value": 4
                },
                "resourceType": "MedicationDispense",
                "status": "completed",
                "subject": {
                    "reference": "Patient/nhs-1157764"
                },
                "text": {
                    "div": "<div xmlns=\"http://www.w3.org/1999/xhtml\">Dispensed 4 tablets = 30 day supply of {4 (Risedronate 35 MG Oral Tablet [Actonel]) } Pack [Actonel 35]</div>",
                    "status": "generated"
                },
                "whenHandedOver": "2003-12-28",
                "meta": {
                    "tag": [
                        {
                            "system": "https://smarthealthit.org/tags",
                            "code": "nhs"
                        }
                    ]
                }
            },
            "fullUrl": "/MedicationDispense/nhs-MedicationDispense-883"
        },
        {
            "request": {
                "method": "PUT",
                "url": "MedicationDispense/nhs-MedicationDispense-893"
            },
            "resource": {
                "authorizingPrescription": [
                    {
                        "reference": "MedicationRequest/nhs-MedicationRequest-129"
                    }
                ],
                "daysSupply": {
                    "code": "d",
                    "system": "http://unitsofmeasure.org",
                    "unit": "days",
                    "value": 30
                },
                "id": "nhs-MedicationDispense-893",
                "medicationCodeableConcept": {
                    "coding": [
                        {
                            "code": "877300",
                            "display": "{4 (Risedronate 35 MG Oral Tablet [Actonel]) } Pack [Actonel 35]",
                            "system": "http://www.nlm.nih.gov/research/umls/rxnorm"
                        }
                    ],
                    "text": "{4 (Risedronate 35 MG Oral Tablet [Actonel]) } Pack [Actonel 35]"
                },
                "quantity": {
                    "code": "{tablets}",
                    "system": "http://unitsofmeasure.org",
                    "unit": "tablets",
                    "value": 4
                },
                "resourceType": "MedicationDispense",
                "status": "completed",
                "subject": {
                    "reference": "Patient/nhs-1157764"
                },
                "text": {
                    "div": "<div xmlns=\"http://www.w3.org/1999/xhtml\">Dispensed 4 tablets = 30 day supply of {4 (Risedronate 35 MG Oral Tablet [Actonel]) } Pack [Actonel 35]</div>",
                    "status": "generated"
                },
                "whenHandedOver": "2004-09-28",
                "meta": {
                    "tag": [
                        {
                            "system": "https://smarthealthit.org/tags",
                            "code": "nhs"
                        }
                    ]
                }
            },
            "fullUrl": "/MedicationDispense/nhs-MedicationDispense-893"
        },
        {
            "request": {
                "method": "PUT",
                "url": "MedicationDispense/nhs-MedicationDispense-907"
            },
            "resource": {
                "authorizingPrescription": [
                    {
                        "reference": "MedicationRequest/nhs-MedicationRequest-129"
                    }
                ],
                "daysSupply": {
                    "code": "d",
                    "system": "http://unitsofmeasure.org",
                    "unit": "days",
                    "value": 30
                },
                "id": "nhs-MedicationDispense-907",
                "medicationCodeableConcept": {
                    "coding": [
                        {
                            "code": "877300",
                            "display": "{4 (Risedronate 35 MG Oral Tablet [Actonel]) } Pack [Actonel 35]",
                            "system": "http://www.nlm.nih.gov/research/umls/rxnorm"
                        }
                    ],
                    "text": "{4 (Risedronate 35 MG Oral Tablet [Actonel]) } Pack [Actonel 35]"
                },
                "quantity": {
                    "code": "{tablets}",
                    "system": "http://unitsofmeasure.org",
                    "unit": "tablets",
                    "value": 4
                },
                "resourceType": "MedicationDispense",
                "status": "completed",
                "subject": {
                    "reference": "Patient/nhs-1157764"
                },
                "text": {
                    "div": "<div xmlns=\"http://www.w3.org/1999/xhtml\">Dispensed 4 tablets = 30 day supply of {4 (Risedronate 35 MG Oral Tablet [Actonel]) } Pack [Actonel 35]</div>",
                    "status": "generated"
                },
                "whenHandedOver": "2005-11-27",
                "meta": {
                    "tag": [
                        {
                            "system": "https://smarthealthit.org/tags",
                            "code": "nhs"
                        }
                    ]
                }
            },
            "fullUrl": "/MedicationDispense/nhs-MedicationDispense-907"
        },
        {
            "request": {
                "method": "PUT",
                "url": "MedicationDispense/nhs-MedicationDispense-888"
            },
            "resource": {
                "authorizingPrescription": [
                    {
                        "reference": "MedicationRequest/nhs-MedicationRequest-129"
                    }
                ],
                "daysSupply": {
                    "code": "d",
                    "system": "http://unitsofmeasure.org",
                    "unit": "days",
                    "value": 30
                },
                "id": "nhs-MedicationDispense-888",
                "medicationCodeableConcept": {
                    "coding": [
                        {
                            "code": "877300",
                            "display": "{4 (Risedronate 35 MG Oral Tablet [Actonel]) } Pack [Actonel 35]",
                            "system": "http://www.nlm.nih.gov/research/umls/rxnorm"
                        }
                    ],
                    "text": "{4 (Risedronate 35 MG Oral Tablet [Actonel]) } Pack [Actonel 35]"
                },
                "quantity": {
                    "code": "{tablets}",
                    "system": "http://unitsofmeasure.org",
                    "unit": "tablets",
                    "value": 4
                },
                "resourceType": "MedicationDispense",
                "status": "completed",
                "subject": {
                    "reference": "Patient/nhs-1157764"
                },
                "text": {
                    "div": "<div xmlns=\"http://www.w3.org/1999/xhtml\">Dispensed 4 tablets = 30 day supply of {4 (Risedronate 35 MG Oral Tablet [Actonel]) } Pack [Actonel 35]</div>",
                    "status": "generated"
                },
                "whenHandedOver": "2004-05-10",
                "meta": {
                    "tag": [
                        {
                            "system": "https://smarthealthit.org/tags",
                            "code": "nhs"
                        }
                    ]
                }
            },
            "fullUrl": "/MedicationDispense/nhs-MedicationDispense-888"
        },
        {
            "request": {
                "method": "PUT",
                "url": "MedicationDispense/nhs-MedicationDispense-887"
            },
            "resource": {
                "authorizingPrescription": [
                    {
                        "reference": "MedicationRequest/nhs-MedicationRequest-129"
                    }
                ],
                "daysSupply": {
                    "code": "d",
                    "system": "http://unitsofmeasure.org",
                    "unit": "days",
                    "value": 30
                },
                "id": "nhs-MedicationDispense-887",
                "medicationCodeableConcept": {
                    "coding": [
                        {
                            "code": "877300",
                            "display": "{4 (Risedronate 35 MG Oral Tablet [Actonel]) } Pack [Actonel 35]",
                            "system": "http://www.nlm.nih.gov/research/umls/rxnorm"
                        }
                    ],
                    "text": "{4 (Risedronate 35 MG Oral Tablet [Actonel]) } Pack [Actonel 35]"
                },
                "quantity": {
                    "code": "{tablets}",
                    "system": "http://unitsofmeasure.org",
                    "unit": "tablets",
                    "value": 4
                },
                "resourceType": "MedicationDispense",
                "status": "completed",
                "subject": {
                    "reference": "Patient/nhs-1157764"
                },
                "text": {
                    "div": "<div xmlns=\"http://www.w3.org/1999/xhtml\">Dispensed 4 tablets = 30 day supply of {4 (Risedronate 35 MG Oral Tablet [Actonel]) } Pack [Actonel 35]</div>",
                    "status": "generated"
                },
                "whenHandedOver": "2004-04-19",
                "meta": {
                    "tag": [
                        {
                            "system": "https://smarthealthit.org/tags",
                            "code": "nhs"
                        }
                    ]
                }
            },
            "fullUrl": "/MedicationDispense/nhs-MedicationDispense-887"
        },
        {
            "request": {
                "method": "PUT",
                "url": "MedicationDispense/nhs-MedicationDispense-897"
            },
            "resource": {
                "authorizingPrescription": [
                    {
                        "reference": "MedicationRequest/nhs-MedicationRequest-129"
                    }
                ],
                "daysSupply": {
                    "code": "d",
                    "system": "http://unitsofmeasure.org",
                    "unit": "days",
                    "value": 30
                },
                "id": "nhs-MedicationDispense-897",
                "medicationCodeableConcept": {
                    "coding": [
                        {
                            "code": "877300",
                            "display": "{4 (Risedronate 35 MG Oral Tablet [Actonel]) } Pack [Actonel 35]",
                            "system": "http://www.nlm.nih.gov/research/umls/rxnorm"
                        }
                    ],
                    "text": "{4 (Risedronate 35 MG Oral Tablet [Actonel]) } Pack [Actonel 35]"
                },
                "quantity": {
                    "code": "{tablets}",
                    "system": "http://unitsofmeasure.org",
                    "unit": "tablets",
                    "value": 4
                },
                "resourceType": "MedicationDispense",
                "status": "completed",
                "subject": {
                    "reference": "Patient/nhs-1157764"
                },
                "text": {
                    "div": "<div xmlns=\"http://www.w3.org/1999/xhtml\">Dispensed 4 tablets = 30 day supply of {4 (Risedronate 35 MG Oral Tablet [Actonel]) } Pack [Actonel 35]</div>",
                    "status": "generated"
                },
                "whenHandedOver": "2005-01-23",
                "meta": {
                    "tag": [
                        {
                            "system": "https://smarthealthit.org/tags",
                            "code": "nhs"
                        }
                    ]
                }
            },
            "fullUrl": "/MedicationDispense/nhs-MedicationDispense-897"
        },
        {
            "request": {
                "method": "PUT",
                "url": "MedicationDispense/nhs-MedicationDispense-906"
            },
            "resource": {
                "authorizingPrescription": [
                    {
                        "reference": "MedicationRequest/nhs-MedicationRequest-129"
                    }
                ],
                "daysSupply": {
                    "code": "d",
                    "system": "http://unitsofmeasure.org",
                    "unit": "days",
                    "value": 30
                },
                "id": "nhs-MedicationDispense-906",
                "medicationCodeableConcept": {
                    "coding": [
                        {
                            "code": "877300",
                            "display": "{4 (Risedronate 35 MG Oral Tablet [Actonel]) } Pack [Actonel 35]",
                            "system": "http://www.nlm.nih.gov/research/umls/rxnorm"
                        }
                    ],
                    "text": "{4 (Risedronate 35 MG Oral Tablet [Actonel]) } Pack [Actonel 35]"
                },
                "quantity": {
                    "code": "{tablets}",
                    "system": "http://unitsofmeasure.org",
                    "unit": "tablets",
                    "value": 4
                },
                "resourceType": "MedicationDispense",
                "status": "completed",
                "subject": {
                    "reference": "Patient/nhs-1157764"
                },
                "text": {
                    "div": "<div xmlns=\"http://www.w3.org/1999/xhtml\">Dispensed 4 tablets = 30 day supply of {4 (Risedronate 35 MG Oral Tablet [Actonel]) } Pack [Actonel 35]</div>",
                    "status": "generated"
                },
                "whenHandedOver": "2005-10-30",
                "meta": {
                    "tag": [
                        {
                            "system": "https://smarthealthit.org/tags",
                            "code": "nhs"
                        }
                    ]
                }
            },
            "fullUrl": "/MedicationDispense/nhs-MedicationDispense-906"
        },
        {
            "request": {
                "method": "PUT",
                "url": "MedicationDispense/nhs-MedicationDispense-903"
            },
            "resource": {
                "authorizingPrescription": [
                    {
                        "reference": "MedicationRequest/nhs-MedicationRequest-129"
                    }
                ],
                "daysSupply": {
                    "code": "d",
                    "system": "http://unitsofmeasure.org",
                    "unit": "days",
                    "value": 30
                },
                "id": "nhs-MedicationDispense-903",
                "medicationCodeableConcept": {
                    "coding": [
                        {
                            "code": "877300",
                            "display": "{4 (Risedronate 35 MG Oral Tablet [Actonel]) } Pack [Actonel 35]",
                            "system": "http://www.nlm.nih.gov/research/umls/rxnorm"
                        }
                    ],
                    "text": "{4 (Risedronate 35 MG Oral Tablet [Actonel]) } Pack [Actonel 35]"
                },
                "quantity": {
                    "code": "{tablets}",
                    "system": "http://unitsofmeasure.org",
                    "unit": "tablets",
                    "value": 4
                },
                "resourceType": "MedicationDispense",
                "status": "completed",
                "subject": {
                    "reference": "Patient/nhs-1157764"
                },
                "text": {
                    "div": "<div xmlns=\"http://www.w3.org/1999/xhtml\">Dispensed 4 tablets = 30 day supply of {4 (Risedronate 35 MG Oral Tablet [Actonel]) } Pack [Actonel 35]</div>",
                    "status": "generated"
                },
                "whenHandedOver": "2005-07-04",
                "meta": {
                    "tag": [
                        {
                            "system": "https://smarthealthit.org/tags",
                            "code": "nhs"
                        }
                    ]
                }
            },
            "fullUrl": "/MedicationDispense/nhs-MedicationDispense-903"
        },
        {
            "request": {
                "method": "PUT",
                "url": "MedicationDispense/nhs-MedicationDispense-909"
            },
            "resource": {
                "authorizingPrescription": [
                    {
                        "reference": "MedicationRequest/nhs-MedicationRequest-129"
                    }
                ],
                "daysSupply": {
                    "code": "d",
                    "system": "http://unitsofmeasure.org",
                    "unit": "days",
                    "value": 30
                },
                "id": "nhs-MedicationDispense-909",
                "medicationCodeableConcept": {
                    "coding": [
                        {
                            "code": "877300",
                            "display": "{4 (Risedronate 35 MG Oral Tablet [Actonel]) } Pack [Actonel 35]",
                            "system": "http://www.nlm.nih.gov/research/umls/rxnorm"
                        }
                    ],
                    "text": "{4 (Risedronate 35 MG Oral Tablet [Actonel]) } Pack [Actonel 35]"
                },
                "quantity": {
                    "code": "{tablets}",
                    "system": "http://unitsofmeasure.org",
                    "unit": "tablets",
                    "value": 4
                },
                "resourceType": "MedicationDispense",
                "status": "completed",
                "subject": {
                    "reference": "Patient/nhs-1157764"
                },
                "text": {
                    "div": "<div xmlns=\"http://www.w3.org/1999/xhtml\">Dispensed 4 tablets = 30 day supply of {4 (Risedronate 35 MG Oral Tablet [Actonel]) } Pack [Actonel 35]</div>",
                    "status": "generated"
                },
                "whenHandedOver": "2006-01-20",
                "meta": {
                    "tag": [
                        {
                            "system": "https://smarthealthit.org/tags",
                            "code": "nhs"
                        }
                    ]
                }
            },
            "fullUrl": "/MedicationDispense/nhs-MedicationDispense-909"
        },
        {
            "request": {
                "method": "PUT",
                "url": "MedicationDispense/nhs-MedicationDispense-894"
            },
            "resource": {
                "authorizingPrescription": [
                    {
                        "reference": "MedicationRequest/nhs-MedicationRequest-129"
                    }
                ],
                "daysSupply": {
                    "code": "d",
                    "system": "http://unitsofmeasure.org",
                    "unit": "days",
                    "value": 30
                },
                "id": "nhs-MedicationDispense-894",
                "medicationCodeableConcept": {
                    "coding": [
                        {
                            "code": "877300",
                            "display": "{4 (Risedronate 35 MG Oral Tablet [Actonel]) } Pack [Actonel 35]",
                            "system": "http://www.nlm.nih.gov/research/umls/rxnorm"
                        }
                    ],
                    "text": "{4 (Risedronate 35 MG Oral Tablet [Actonel]) } Pack [Actonel 35]"
                },
                "quantity": {
                    "code": "{tablets}",
                    "system": "http://unitsofmeasure.org",
                    "unit": "tablets",
                    "value": 4
                },
                "resourceType": "MedicationDispense",
                "status": "completed",
                "subject": {
                    "reference": "Patient/nhs-1157764"
                },
                "text": {
                    "div": "<div xmlns=\"http://www.w3.org/1999/xhtml\">Dispensed 4 tablets = 30 day supply of {4 (Risedronate 35 MG Oral Tablet [Actonel]) } Pack [Actonel 35]</div>",
                    "status": "generated"
                },
                "whenHandedOver": "2004-10-27",
                "meta": {
                    "tag": [
                        {
                            "system": "https://smarthealthit.org/tags",
                            "code": "nhs"
                        }
                    ]
                }
            },
            "fullUrl": "/MedicationDispense/nhs-MedicationDispense-894"
        },
        {
            "request": {
                "method": "PUT",
                "url": "MedicationDispense/nhs-MedicationDispense-881"
            },
            "resource": {
                "authorizingPrescription": [
                    {
                        "reference": "MedicationRequest/nhs-MedicationRequest-129"
                    }
                ],
                "daysSupply": {
                    "code": "d",
                    "system": "http://unitsofmeasure.org",
                    "unit": "days",
                    "value": 30
                },
                "id": "nhs-MedicationDispense-881",
                "medicationCodeableConcept": {
                    "coding": [
                        {
                            "code": "877300",
                            "display": "{4 (Risedronate 35 MG Oral Tablet [Actonel]) } Pack [Actonel 35]",
                            "system": "http://www.nlm.nih.gov/research/umls/rxnorm"
                        }
                    ],
                    "text": "{4 (Risedronate 35 MG Oral Tablet [Actonel]) } Pack [Actonel 35]"
                },
                "quantity": {
                    "code": "{tablets}",
                    "system": "http://unitsofmeasure.org",
                    "unit": "tablets",
                    "value": 4
                },
                "resourceType": "MedicationDispense",
                "status": "completed",
                "subject": {
                    "reference": "Patient/nhs-1157764"
                },
                "text": {
                    "div": "<div xmlns=\"http://www.w3.org/1999/xhtml\">Dispensed 4 tablets = 30 day supply of {4 (Risedronate 35 MG Oral Tablet [Actonel]) } Pack [Actonel 35]</div>",
                    "status": "generated"
                },
                "whenHandedOver": "2003-11-02",
                "meta": {
                    "tag": [
                        {
                            "system": "https://smarthealthit.org/tags",
                            "code": "nhs"
                        }
                    ]
                }
            },
            "fullUrl": "/MedicationDispense/nhs-MedicationDispense-881"
        },
        {
            "request": {
                "method": "PUT",
                "url": "MedicationDispense/nhs-MedicationDispense-900"
            },
            "resource": {
                "authorizingPrescription": [
                    {
                        "reference": "MedicationRequest/nhs-MedicationRequest-129"
                    }
                ],
                "daysSupply": {
                    "code": "d",
                    "system": "http://unitsofmeasure.org",
                    "unit": "days",
                    "value": 30
                },
                "id": "nhs-MedicationDispense-900",
                "medicationCodeableConcept": {
                    "coding": [
                        {
                            "code": "877300",
                            "display": "{4 (Risedronate 35 MG Oral Tablet [Actonel]) } Pack [Actonel 35]",
                            "system": "http://www.nlm.nih.gov/research/umls/rxnorm"
                        }
                    ],
                    "text": "{4 (Risedronate 35 MG Oral Tablet [Actonel]) } Pack [Actonel 35]"
                },
                "quantity": {
                    "code": "{tablets}",
                    "system": "http://unitsofmeasure.org",
                    "unit": "tablets",
                    "value": 4
                },
                "resourceType": "MedicationDispense",
                "status": "completed",
                "subject": {
                    "reference": "Patient/nhs-1157764"
                },
                "text": {
                    "div": "<div xmlns=\"http://www.w3.org/1999/xhtml\">Dispensed 4 tablets = 30 day supply of {4 (Risedronate 35 MG Oral Tablet [Actonel]) } Pack [Actonel 35]</div>",
                    "status": "generated"
                },
                "whenHandedOver": "2005-04-16",
                "meta": {
                    "tag": [
                        {
                            "system": "https://smarthealthit.org/tags",
                            "code": "nhs"
                        }
                    ]
                }
            },
            "fullUrl": "/MedicationDispense/nhs-MedicationDispense-900"
        },
        {
            "request": {
                "method": "PUT",
                "url": "MedicationRequest/nhs-MedicationRequest-130"
            },
            "resource": {
                "dispenseRequest": {
                    "expectedSupplyDuration": {
                        "code": "d",
                        "system": "http://unitsofmeasure.org",
                        "unit": "days",
                        "value": 30
                    },
                    "numberOfRepeatsAllowed": 1,
                    "quantity": {
                        "code": "{tablet}",
                        "system": "http://unitsofmeasure.org",
                        "unit": "{tablet}",
                        "value": 60
                    }
                },
                "dosageInstruction": [
                    {
                        "doseQuantity": {
                            "code": "{tablet}",
                            "system": "http://unitsofmeasure.org",
                            "unit": "{tablet}",
                            "value": 1
                        },
                        "text": "1 bid",
                        "timing": {
                            "repeat": {
                                "boundsPeriod": {
                                    "start": "2006-10-31"
                                },
                                "frequency": 2,
                                "period": 1,
                                "periodUnit": "d"
                            }
                        }
                    }
                ],
                "id": "nhs-MedicationRequest-130",
                "intent": "order",
                "medicationCodeableConcept": {
                    "coding": [
                        {
                            "code": "311992",
                            "display": "Nitrofurantoin 100 MG Oral Capsule",
                            "system": "http://www.nlm.nih.gov/research/umls/rxnorm"
                        }
                    ],
                    "text": "Nitrofurantoin 100 MG Oral Capsule"
                },
                "resourceType": "MedicationRequest",
                "status": "active",
                "subject": {
                    "reference": "Patient/nhs-1157764"
                },
                "text": {
                    "div": "<div xmlns=\"http://www.w3.org/1999/xhtml\">Nitrofurantoin 100 MG Oral Capsule (rxnorm: 311992)</div>",
                    "status": "generated"
                },
                "meta": {
                    "tag": [
                        {
                            "system": "https://smarthealthit.org/tags",
                            "code": "nhs"
                        }
                    ]
                }
            },
            "fullUrl": "/MedicationRequest/nhs-MedicationRequest-130"
        },
        {
            "request": {
                "method": "PUT",
                "url": "MedicationDispense/nhs-MedicationDispense-880"
            },
            "resource": {
                "authorizingPrescription": [
                    {
                        "reference": "MedicationRequest/nhs-MedicationRequest-130"
                    }
                ],
                "daysSupply": {
                    "code": "d",
                    "system": "http://unitsofmeasure.org",
                    "unit": "days",
                    "value": 30
                },
                "id": "nhs-MedicationDispense-880",
                "medicationCodeableConcept": {
                    "coding": [
                        {
                            "code": "311992",
                            "display": "Nitrofurantoin 100 MG Oral Capsule",
                            "system": "http://www.nlm.nih.gov/research/umls/rxnorm"
                        }
                    ],
                    "text": "Nitrofurantoin 100 MG Oral Capsule"
                },
                "quantity": {
                    "code": "{tablets}",
                    "system": "http://unitsofmeasure.org",
                    "unit": "tablets",
                    "value": 60
                },
                "resourceType": "MedicationDispense",
                "status": "completed",
                "subject": {
                    "reference": "Patient/nhs-1157764"
                },
                "text": {
                    "div": "<div xmlns=\"http://www.w3.org/1999/xhtml\">Dispensed 60 tablets = 30 day supply of Nitrofurantoin 100 MG Oral Capsule</div>",
                    "status": "generated"
                },
                "whenHandedOver": "2006-10-31",
                "meta": {
                    "tag": [
                        {
                            "system": "https://smarthealthit.org/tags",
                            "code": "nhs"
                        }
                    ]
                }
            },
            "fullUrl": "/MedicationDispense/nhs-MedicationDispense-880"
        },
        {
            "request": {
                "method": "PUT",
                "url": "MedicationRequest/nhs-MedicationRequest-131"
            },
            "resource": {
                "dispenseRequest": {
                    "expectedSupplyDuration": {
                        "code": "d",
                        "system": "http://unitsofmeasure.org",
                        "unit": "days",
                        "value": 20
                    },
                    "numberOfRepeatsAllowed": 1,
                    "quantity": {
                        "code": "[drp]",
                        "system": "http://unitsofmeasure.org",
                        "unit": "[drp]",
                        "value": 2
                    }
                },
                "dosageInstruction": [
                    {
                        "doseQuantity": {
                            "code": "[drp]",
                            "system": "http://unitsofmeasure.org",
                            "unit": "[drp]",
                            "value": 1
                        },
                        "text": "1 gtt daily in OD",
                        "timing": {
                            "repeat": {
                                "boundsPeriod": {
                                    "start": "2009-08-22"
                                },
                                "frequency": 1,
                                "period": 1,
                                "periodUnit": "d"
                            }
                        }
                    }
                ],
                "id": "nhs-MedicationRequest-131",
                "intent": "order",
                "medicationCodeableConcept": {
                    "coding": [
                        {
                            "code": "285128",
                            "display": "bimatoprost 0.3 MG/ML Ophthalmic Solution [Lumigan]",
                            "system": "http://www.nlm.nih.gov/research/umls/rxnorm"
                        }
                    ],
                    "text": "bimatoprost 0.3 MG/ML Ophthalmic Solution [Lumigan]"
                },
                "resourceType": "MedicationRequest",
                "status": "active",
                "subject": {
                    "reference": "Patient/nhs-1157764"
                },
                "text": {
                    "div": "<div xmlns=\"http://www.w3.org/1999/xhtml\">bimatoprost 0.3 MG/ML Ophthalmic Solution [Lumigan] (rxnorm: 285128)</div>",
                    "status": "generated"
                },
                "meta": {
                    "tag": [
                        {
                            "system": "https://smarthealthit.org/tags",
                            "code": "nhs"
                        }
                    ]
                }
            },
            "fullUrl": "/MedicationRequest/nhs-MedicationRequest-131"
        },
        {
            "request": {
                "method": "PUT",
                "url": "MedicationDispense/nhs-MedicationDispense-937"
            },
            "resource": {
                "authorizingPrescription": [
                    {
                        "reference": "MedicationRequest/nhs-MedicationRequest-131"
                    }
                ],
                "daysSupply": {
                    "code": "d",
                    "system": "http://unitsofmeasure.org",
                    "unit": "days",
                    "value": 20
                },
                "id": "nhs-MedicationDispense-937",
                "medicationCodeableConcept": {
                    "coding": [
                        {
                            "code": "285128",
                            "display": "bimatoprost 0.3 MG/ML Ophthalmic Solution [Lumigan]",
                            "system": "http://www.nlm.nih.gov/research/umls/rxnorm"
                        }
                    ],
                    "text": "bimatoprost 0.3 MG/ML Ophthalmic Solution [Lumigan]"
                },
                "quantity": {
                    "code": "{tablets}",
                    "system": "http://unitsofmeasure.org",
                    "unit": "tablets",
                    "value": 2
                },
                "resourceType": "MedicationDispense",
                "status": "completed",
                "subject": {
                    "reference": "Patient/nhs-1157764"
                },
                "text": {
                    "div": "<div xmlns=\"http://www.w3.org/1999/xhtml\">Dispensed 2 tablets = 20 day supply of bimatoprost 0.3 MG/ML Ophthalmic Solution [Lumigan]</div>",
                    "status": "generated"
                },
                "whenHandedOver": "2009-08-22",
                "meta": {
                    "tag": [
                        {
                            "system": "https://smarthealthit.org/tags",
                            "code": "nhs"
                        }
                    ]
                }
            },
            "fullUrl": "/MedicationDispense/nhs-MedicationDispense-937"
        },
        {
            "request": {
                "method": "PUT",
                "url": "Condition/nhs-Condition-379"
            },
            "resource": {
                "clinicalStatus": "active",
                "code": {
                    "coding": [
                        {
                            "code": "254837009",
                            "display": "Primary malignant neoplasm of female breast",
                            "system": "http://snomed.info/sct"
                        }
                    ],
                    "text": "Primary malignant neoplasm of female breast"
                },
                "id": "nhs-Condition-379",
                "onsetDateTime": "2003-12-16",
                "resourceType": "Condition",
                "subject": {
                    "reference": "Patient/nhs-1157764"
                },
                "text": {
                    "div": "<div xmlns=\"http://www.w3.org/1999/xhtml\">Primary malignant neoplasm of female breast</div>",
                    "status": "generated"
                },
                "verificationStatus": "confirmed",
                "meta": {
                    "tag": [
                        {
                            "system": "https://smarthealthit.org/tags",
                            "code": "nhs"
                        }
                    ]
                }
            },
            "fullUrl": "/Condition/nhs-Condition-379"
        },
        {
            "request": {
                "method": "PUT",
                "url": "Condition/nhs-Condition-380"
            },
            "resource": {
                "clinicalStatus": "active",
                "code": {
                    "coding": [
                        {
                            "code": "17226007",
                            "display": "Adjustment disorder",
                            "system": "http://snomed.info/sct"
                        }
                    ],
                    "text": "Adjustment disorder"
                },
                "id": "nhs-Condition-380",
                "onsetDateTime": "2005-09-14",
                "resourceType": "Condition",
                "subject": {
                    "reference": "Patient/nhs-1157764"
                },
                "text": {
                    "div": "<div xmlns=\"http://www.w3.org/1999/xhtml\">Adjustment disorder</div>",
                    "status": "generated"
                },
                "verificationStatus": "confirmed",
                "meta": {
                    "tag": [
                        {
                            "system": "https://smarthealthit.org/tags",
                            "code": "nhs"
                        }
                    ]
                }
            },
            "fullUrl": "/Condition/nhs-Condition-380"
        },
        {
            "request": {
                "method": "PUT",
                "url": "Condition/nhs-Condition-381"
            },
            "resource": {
                "clinicalStatus": "active",
                "code": {
                    "coding": [
                        {
                            "code": "7620006",
                            "display": "Crohn's disease of large bowel",
                            "system": "http://snomed.info/sct"
                        }
                    ],
                    "text": "Crohn's disease of large bowel"
                },
                "id": "nhs-Condition-381",
                "onsetDateTime": "2005-11-14",
                "resourceType": "Condition",
                "subject": {
                    "reference": "Patient/nhs-1157764"
                },
                "text": {
                    "div": "<div xmlns=\"http://www.w3.org/1999/xhtml\">Crohn's disease of large bowel</div>",
                    "status": "generated"
                },
                "verificationStatus": "confirmed",
                "meta": {
                    "tag": [
                        {
                            "system": "https://smarthealthit.org/tags",
                            "code": "nhs"
                        }
                    ]
                }
            },
            "fullUrl": "/Condition/nhs-Condition-381"
        },
        {
            "request": {
                "method": "PUT",
                "url": "Condition/nhs-Condition-382"
            },
            "resource": {
                "clinicalStatus": "active",
                "code": {
                    "coding": [
                        {
                            "code": "18818009",
                            "display": "Recurrent major depressive episodes, moderate",
                            "system": "http://snomed.info/sct"
                        }
                    ],
                    "text": "Recurrent major depressive episodes, moderate"
                },
                "id": "nhs-Condition-382",
                "onsetDateTime": "2005-11-15",
                "resourceType": "Condition",
                "subject": {
                    "reference": "Patient/nhs-1157764"
                },
                "text": {
                    "div": "<div xmlns=\"http://www.w3.org/1999/xhtml\">Recurrent major depressive episodes, moderate</div>",
                    "status": "generated"
                },
                "verificationStatus": "confirmed",
                "meta": {
                    "tag": [
                        {
                            "system": "https://smarthealthit.org/tags",
                            "code": "nhs"
                        }
                    ]
                }
            },
            "fullUrl": "/Condition/nhs-Condition-382"
        },
        {
            "request": {
                "method": "PUT",
                "url": "Condition/nhs-Condition-383"
            },
            "resource": {
                "clinicalStatus": "active",
                "code": {
                    "coding": [
                        {
                            "code": "36971009",
                            "display": "Acute sinusitis",
                            "system": "http://snomed.info/sct"
                        }
                    ],
                    "text": "Acute sinusitis"
                },
                "id": "nhs-Condition-383",
                "onsetDateTime": "2006-09-26",
                "resourceType": "Condition",
                "subject": {
                    "reference": "Patient/nhs-1157764"
                },
                "text": {
                    "div": "<div xmlns=\"http://www.w3.org/1999/xhtml\">Acute sinusitis</div>",
                    "status": "generated"
                },
                "verificationStatus": "confirmed",
                "meta": {
                    "tag": [
                        {
                            "system": "https://smarthealthit.org/tags",
                            "code": "nhs"
                        }
                    ]
                }
            },
            "fullUrl": "/Condition/nhs-Condition-383"
        },
        {
            "request": {
                "method": "PUT",
                "url": "Condition/nhs-Condition-384"
            },
            "resource": {
                "clinicalStatus": "active",
                "code": {
                    "coding": [
                        {
                            "code": "53298000",
                            "display": "Hematuria syndrome",
                            "system": "http://snomed.info/sct"
                        }
                    ],
                    "text": "Hematuria syndrome"
                },
                "id": "nhs-Condition-384",
                "onsetDateTime": "2006-10-30",
                "resourceType": "Condition",
                "subject": {
                    "reference": "Patient/nhs-1157764"
                },
                "text": {
                    "div": "<div xmlns=\"http://www.w3.org/1999/xhtml\">Hematuria syndrome</div>",
                    "status": "generated"
                },
                "verificationStatus": "confirmed",
                "meta": {
                    "tag": [
                        {
                            "system": "https://smarthealthit.org/tags",
                            "code": "nhs"
                        }
                    ]
                }
            },
            "fullUrl": "/Condition/nhs-Condition-384"
        },
        {
            "request": {
                "method": "PUT",
                "url": "Condition/nhs-Condition-385"
            },
            "resource": {
                "clinicalStatus": "active",
                "code": {
                    "coding": [
                        {
                            "code": "372064008",
                            "display": "Primary malignant neoplasm of central portion of female breast",
                            "system": "http://snomed.info/sct"
                        }
                    ],
                    "text": "Primary malignant neoplasm of central portion of female breast"
                },
                "id": "nhs-Condition-385",
                "onsetDateTime": "2008-10-21",
                "resourceType": "Condition",
                "subject": {
                    "reference": "Patient/nhs-1157764"
                },
                "text": {
                    "div": "<div xmlns=\"http://www.w3.org/1999/xhtml\">Primary malignant neoplasm of central portion of female breast</div>",
                    "status": "generated"
                },
                "verificationStatus": "confirmed",
                "meta": {
                    "tag": [
                        {
                            "system": "https://smarthealthit.org/tags",
                            "code": "nhs"
                        }
                    ]
                }
            },
            "fullUrl": "/Condition/nhs-Condition-385"
        },
        {
            "request": {
                "method": "PUT",
                "url": "Condition/nhs-Condition-386"
            },
            "resource": {
                "clinicalStatus": "active",
                "code": {
                    "coding": [
                        {
                            "code": "77075001",
                            "display": "Primary open angle glaucoma",
                            "system": "http://snomed.info/sct"
                        }
                    ],
                    "text": "Primary open angle glaucoma"
                },
                "id": "nhs-Condition-386",
                "onsetDateTime": "2009-05-20",
                "resourceType": "Condition",
                "subject": {
                    "reference": "Patient/nhs-1157764"
                },
                "text": {
                    "div": "<div xmlns=\"http://www.w3.org/1999/xhtml\">Primary open angle glaucoma</div>",
                    "status": "generated"
                },
                "verificationStatus": "confirmed",
                "meta": {
                    "tag": [
                        {
                            "system": "https://smarthealthit.org/tags",
                            "code": "nhs"
                        }
                    ]
                }
            },
            "fullUrl": "/Condition/nhs-Condition-386"
        },
        {
            "request": {
                "method": "PUT",
                "url": "Condition/nhs-Condition-387"
            },
            "resource": {
                "clinicalStatus": "active",
                "code": {
                    "coding": [
                        {
                            "code": "50485007",
                            "display": "Low tension glaucoma",
                            "system": "http://snomed.info/sct"
                        }
                    ],
                    "text": "Low tension glaucoma"
                },
                "id": "nhs-Condition-387",
                "onsetDateTime": "2009-07-01",
                "resourceType": "Condition",
                "subject": {
                    "reference": "Patient/nhs-1157764"
                },
                "text": {
                    "div": "<div xmlns=\"http://www.w3.org/1999/xhtml\">Low tension glaucoma</div>",
                    "status": "generated"
                },
                "verificationStatus": "confirmed",
                "meta": {
                    "tag": [
                        {
                            "system": "https://smarthealthit.org/tags",
                            "code": "nhs"
                        }
                    ]
                }
            },
            "fullUrl": "/Condition/nhs-Condition-387"
        },
        {
            "request": {
                "method": "PUT",
                "url": "Observation/nhs-smokingstatus-46"
            },
            "resource": {
                "category": [
                    {
                        "coding": [
                            {
                                "code": "social-history",
                                "display": "Social History",
                                "system": "http://hl7.org/fhir/observation-category"
                            }
                        ],
                        "text": "Social History"
                    }
                ],
                "code": {
                    "coding": [
                        {
                            "code": "72166-2",
                            "display": "Tobacco smoking status",
                            "system": "http://loinc.org"
                        }
                    ],
                    "text": "Tobacco smoking status"
                },
                "effectiveDateTime": "2016-06-11",
                "id": "nhs-smokingstatus-46",
                "identifier": [
                    {
                        "system": "http://www.bmc.nl/zorgportal/identifiers/observations",
                        "use": "official",
                        "value": "nhs-46"
                    }
                ],
                "performer": [
                    {
                        "reference": "Practitioner/nhs-Practitioner-7880378"
                    }
                ],
                "resourceType": "Observation",
                "status": "final",
                "subject": {
                    "reference": "Patient/nhs-1157764"
                },
                "text": {
                    "div": "<div xmlns=\"http://www.w3.org/1999/xhtml\">Tobacco smoking status: Current every day smoker</div>",
                    "status": "generated"
                },
                "valueCodeableConcept": {
                    "coding": [
                        {
                            "code": "449868002",
                            "display": "Current every day smoker",
                            "system": "http://snomed.info/sct"
                        }
                    ],
                    "text": "Current every day smoker"
                },
                "meta": {
                    "tag": [
                        {
                            "system": "https://smarthealthit.org/tags",
                            "code": "nhs"
                        }
                    ]
                }
            },
            "fullUrl": "/Observation/nhs-smokingstatus-46"
        },
        {
            "request": {
                "method": "PUT",
                "url": "AllergyIntolerance/nhs-AllergyIntolerance-24"
            },
            "resource": {
                "assertedDate": "2000",
                "clinicalStatus": "active",
                "code": {
                    "coding": [
                        {
                            "code": "716186003",
                            "display": "No known allergies",
                            "system": "http://snomed.info/sct"
                        }
                    ],
                    "text": "No known allergies"
                },
                "id": "nhs-AllergyIntolerance-24",
                "patient": {
                    "reference": "Patient/nhs-1157764"
                },
                "resourceType": "AllergyIntolerance",
                "text": {
                    "div": "<div xmlns=\"http://www.w3.org/1999/xhtml\">No known allergies</div>",
                    "status": "generated"
                },
                "verificationStatus": "confirmed",
                "meta": {
                    "tag": [
                        {
                            "system": "https://smarthealthit.org/tags",
                            "code": "nhs"
                        }
                    ]
                }
            },
            "fullUrl": "/AllergyIntolerance/nhs-AllergyIntolerance-24"
        }
    ],
    "resourceType": "Bundle",
    "type": "transaction"
}