{
    "entry": [
        {
            "request": {
                "method": "PUT",
                "url": "Patient/nhs-7777701"
            },
            "resource": {
                "active": true,
                "birthDate": "2011-09-16",
                "gender": "male",
                "generalPractitioner": [
                    {
                        "reference": "Practitioner/nhs-Practitioner-71081332"
                    }
                ],
                "id": "nhs-7777701",
                "identifier": [
                    {
                        "system": "http://hospital.smarthealthit.org",
                        "type": {
                            "coding": [
                                {
                                    "code": "MR",
                                    "display": "Medical Record Number",
                                    "system": "http://hl7.org/fhir/v2/0203"
                                }
                            ],
                            "text": "Medical Record Number"
                        },
                        "use": "official",
                        "value": "nhs-7777701"
                    }
                ],
                "name": [
                    {
                        "family": "Richey",
                        "given": [
                            "Steve"
                        ],
                        "use": "official"
                    }
                ],
                "resourceType": "Patient",
                "text": {
                    "div": "<div xmlns=\"http://www.w3.org/1999/xhtml\">Steve Richey</div>",
                    "status": "generated"
                },
                "meta": {
                    "tag": [
                        {
                            "system": "https://smarthealthit.org/tags",
                            "code": "nhs"
                        }
                    ]
                }
            },
            "fullUrl": "/Patient/nhs-7777701"
        },
        {
            "request": {
                "method": "PUT",
                "url": "Observation/nhs-7777701-gestage"
            },
            "resource": {
                "category": [
                    {
                        "coding": [
                            {
                                "code": "exam",
                                "display": "Exam",
                                "system": "http://hl7.org/fhir/observation-category"
                            }
                        ],
                        "text": "Exam"
                    }
                ],
                "code": {
                    "coding": [
                        {
                            "code": "18185-9",
                            "display": "Gestational age at birth",
                            "system": "http://loinc.org"
                        }
                    ],
                    "text": "Gestational age at birth"
                },
                "effectiveDateTime": "2011-09-16",
                "id": "nhs-7777701-gestage",
                "identifier": [
                    {
                        "system": "http://www.bmc.nl/zorgportal/identifiers/observations",
                        "use": "official",
                        "value": "nhs-7777701-gestage"
                    }
                ],
                "performer": [
                    {
                        "reference": "Practitioner/nhs-Practitioner-71081332"
                    }
                ],
                "resourceType": "Observation",
                "status": "unknown",
                "subject": {
                    "reference": "Patient/nhs-7777701"
                },
                "text": {
                    "div": "<div xmlns=\"http://www.w3.org/1999/xhtml\">2011-09-16: Gestational age at birth = 28.3 weeks</div>",
                    "status": "generated"
                },
                "valueQuantity": {
                    "code": "wk",
                    "system": "http://unitsofmeasure.org",
                    "unit": "weeks",
                    "value": 28.3
                },
                "meta": {
                    "tag": [
                        {
                            "system": "https://smarthealthit.org/tags",
                            "code": "nhs"
                        }
                    ]
                }
            },
            "fullUrl": "/Observation/nhs-7777701-gestage"
        },
        {
            "request": {
                "method": "PUT",
                "url": "Encounter/nhs-967"
            },
            "resource": {
                "class": {
                    "code": "ambulatory"
                },
                "id": "nhs-967",
                "period": {
                    "end": "2011-09-16",
                    "start": "2011-09-16"
                },
                "resourceType": "Encounter",
                "status": "finished",
                "subject": {
                    "reference": "Patient/nhs-7777701"
                },
                "text": {
                    "div": "<div xmlns=\"http://www.w3.org/1999/xhtml\">2011-09-16: ambulatory encounter</div>",
                    "status": "generated"
                },
                "type": [
                    {
                        "coding": [
                            {
                                "code": "270427003",
                                "display": "Patient-initiated encounter",
                                "system": "http://snomed.info"
                            }
                        ],
                        "text": "Patient-initiated ambulatory encounter"
                    }
                ],
                "meta": {
                    "tag": [
                        {
                            "system": "https://smarthealthit.org/tags",
                            "code": "nhs"
                        }
                    ]
                }
            },
            "fullUrl": "/Encounter/nhs-967"
        },
        {
            "request": {
                "method": "PUT",
                "url": "Encounter/nhs-968"
            },
            "resource": {
                "class": {
                    "code": "ambulatory"
                },
                "id": "nhs-968",
                "period": {
                    "end": "2011-11-22",
                    "start": "2011-11-22"
                },
                "resourceType": "Encounter",
                "status": "finished",
                "subject": {
                    "reference": "Patient/nhs-7777701"
                },
                "text": {
                    "div": "<div xmlns=\"http://www.w3.org/1999/xhtml\">2011-11-22: ambulatory encounter</div>",
                    "status": "generated"
                },
                "type": [
                    {
                        "coding": [
                            {
                                "code": "270427003",
                                "display": "Patient-initiated encounter",
                                "system": "http://snomed.info"
                            }
                        ],
                        "text": "Patient-initiated ambulatory encounter"
                    }
                ],
                "meta": {
                    "tag": [
                        {
                            "system": "https://smarthealthit.org/tags",
                            "code": "nhs"
                        }
                    ]
                }
            },
            "fullUrl": "/Encounter/nhs-968"
        },
        {
            "request": {
                "method": "PUT",
                "url": "Encounter/nhs-969"
            },
            "resource": {
                "class": {
                    "code": "ambulatory"
                },
                "id": "nhs-969",
                "period": {
                    "end": "2011-12-01",
                    "start": "2011-12-01"
                },
                "resourceType": "Encounter",
                "status": "finished",
                "subject": {
                    "reference": "Patient/nhs-7777701"
                },
                "text": {
                    "div": "<div xmlns=\"http://www.w3.org/1999/xhtml\">2011-12-01: ambulatory encounter</div>",
                    "status": "generated"
                },
                "type": [
                    {
                        "coding": [
                            {
                                "code": "270427003",
                                "display": "Patient-initiated encounter",
                                "system": "http://snomed.info"
                            }
                        ],
                        "text": "Patient-initiated ambulatory encounter"
                    }
                ],
                "meta": {
                    "tag": [
                        {
                            "system": "https://smarthealthit.org/tags",
                            "code": "nhs"
                        }
                    ]
                }
            },
            "fullUrl": "/Encounter/nhs-969"
        },
        {
            "request": {
                "method": "PUT",
                "url": "Encounter/nhs-970"
            },
            "resource": {
                "class": {
                    "code": "ambulatory"
                },
                "id": "nhs-970",
                "period": {
                    "end": "2011-12-16",
                    "start": "2011-12-16"
                },
                "resourceType": "Encounter",
                "status": "finished",
                "subject": {
                    "reference": "Patient/nhs-7777701"
                },
                "text": {
                    "div": "<div xmlns=\"http://www.w3.org/1999/xhtml\">2011-12-16: ambulatory encounter</div>",
                    "status": "generated"
                },
                "type": [
                    {
                        "coding": [
                            {
                                "code": "270427003",
                                "display": "Patient-initiated encounter",
                                "system": "http://snomed.info"
                            }
                        ],
                        "text": "Patient-initiated ambulatory encounter"
                    }
                ],
                "meta": {
                    "tag": [
                        {
                            "system": "https://smarthealthit.org/tags",
                            "code": "nhs"
                        }
                    ]
                }
            },
            "fullUrl": "/Encounter/nhs-970"
        },
        {
            "request": {
                "method": "PUT",
                "url": "Encounter/nhs-971"
            },
            "resource": {
                "class": {
                    "code": "ambulatory"
                },
                "id": "nhs-971",
                "period": {
                    "end": "2012-01-10",
                    "start": "2012-01-10"
                },
                "resourceType": "Encounter",
                "status": "finished",
                "subject": {
                    "reference": "Patient/nhs-7777701"
                },
                "text": {
                    "div": "<div xmlns=\"http://www.w3.org/1999/xhtml\">2012-01-10: ambulatory encounter</div>",
                    "status": "generated"
                },
                "type": [
                    {
                        "coding": [
                            {
                                "code": "270427003",
                                "display": "Patient-initiated encounter",
                                "system": "http://snomed.info"
                            }
                        ],
                        "text": "Patient-initiated ambulatory encounter"
                    }
                ],
                "meta": {
                    "tag": [
                        {
                            "system": "https://smarthealthit.org/tags",
                            "code": "nhs"
                        }
                    ]
                }
            },
            "fullUrl": "/Encounter/nhs-971"
        },
        {
            "request": {
                "method": "PUT",
                "url": "Encounter/nhs-972"
            },
            "resource": {
                "class": {
                    "code": "ambulatory"
                },
                "id": "nhs-972",
                "period": {
                    "end": "2012-02-03",
                    "start": "2012-02-03"
                },
                "resourceType": "Encounter",
                "status": "finished",
                "subject": {
                    "reference": "Patient/nhs-7777701"
                },
                "text": {
                    "div": "<div xmlns=\"http://www.w3.org/1999/xhtml\">2012-02-03: ambulatory encounter</div>",
                    "status": "generated"
                },
                "type": [
                    {
                        "coding": [
                            {
                                "code": "270427003",
                                "display": "Patient-initiated encounter",
                                "system": "http://snomed.info"
                            }
                        ],
                        "text": "Patient-initiated ambulatory encounter"
                    }
                ],
                "meta": {
                    "tag": [
                        {
                            "system": "https://smarthealthit.org/tags",
                            "code": "nhs"
                        }
                    ]
                }
            },
            "fullUrl": "/Encounter/nhs-972"
        },
        {
            "request": {
                "method": "PUT",
                "url": "Encounter/nhs-973"
            },
            "resource": {
                "class": {
                    "code": "ambulatory"
                },
                "id": "nhs-973",
                "period": {
                    "end": "2012-02-09",
                    "start": "2012-02-09"
                },
                "resourceType": "Encounter",
                "status": "finished",
                "subject": {
                    "reference": "Patient/nhs-7777701"
                },
                "text": {
                    "div": "<div xmlns=\"http://www.w3.org/1999/xhtml\">2012-02-09: ambulatory encounter</div>",
                    "status": "generated"
                },
                "type": [
                    {
                        "coding": [
                            {
                                "code": "270427003",
                                "display": "Patient-initiated encounter",
                                "system": "http://snomed.info"
                            }
                        ],
                        "text": "Patient-initiated ambulatory encounter"
                    }
                ],
                "meta": {
                    "tag": [
                        {
                            "system": "https://smarthealthit.org/tags",
                            "code": "nhs"
                        }
                    ]
                }
            },
            "fullUrl": "/Encounter/nhs-973"
        },
        {
            "request": {
                "method": "PUT",
                "url": "Encounter/nhs-974"
            },
            "resource": {
                "class": {
                    "code": "ambulatory"
                },
                "id": "nhs-974",
                "period": {
                    "end": "2012-03-10",
                    "start": "2012-03-10"
                },
                "resourceType": "Encounter",
                "status": "finished",
                "subject": {
                    "reference": "Patient/nhs-7777701"
                },
                "text": {
                    "div": "<div xmlns=\"http://www.w3.org/1999/xhtml\">2012-03-10: ambulatory encounter</div>",
                    "status": "generated"
                },
                "type": [
                    {
                        "coding": [
                            {
                                "code": "270427003",
                                "display": "Patient-initiated encounter",
                                "system": "http://snomed.info"
                            }
                        ],
                        "text": "Patient-initiated ambulatory encounter"
                    }
                ],
                "meta": {
                    "tag": [
                        {
                            "system": "https://smarthealthit.org/tags",
                            "code": "nhs"
                        }
                    ]
                }
            },
            "fullUrl": "/Encounter/nhs-974"
        },
        {
            "request": {
                "method": "PUT",
                "url": "Encounter/nhs-975"
            },
            "resource": {
                "class": {
                    "code": "ambulatory"
                },
                "id": "nhs-975",
                "period": {
                    "end": "2012-03-20",
                    "start": "2012-03-20"
                },
                "resourceType": "Encounter",
                "status": "finished",
                "subject": {
                    "reference": "Patient/nhs-7777701"
                },
                "text": {
                    "div": "<div xmlns=\"http://www.w3.org/1999/xhtml\">2012-03-20: ambulatory encounter</div>",
                    "status": "generated"
                },
                "type": [
                    {
                        "coding": [
                            {
                                "code": "270427003",
                                "display": "Patient-initiated encounter",
                                "system": "http://snomed.info"
                            }
                        ],
                        "text": "Patient-initiated ambulatory encounter"
                    }
                ],
                "meta": {
                    "tag": [
                        {
                            "system": "https://smarthealthit.org/tags",
                            "code": "nhs"
                        }
                    ]
                }
            },
            "fullUrl": "/Encounter/nhs-975"
        },
        {
            "request": {
                "method": "PUT",
                "url": "Encounter/nhs-976"
            },
            "resource": {
                "class": {
                    "code": "ambulatory"
                },
                "id": "nhs-976",
                "period": {
                    "end": "2012-04-10",
                    "start": "2012-04-10"
                },
                "resourceType": "Encounter",
                "status": "finished",
                "subject": {
                    "reference": "Patient/nhs-7777701"
                },
                "text": {
                    "div": "<div xmlns=\"http://www.w3.org/1999/xhtml\">2012-04-10: ambulatory encounter</div>",
                    "status": "generated"
                },
                "type": [
                    {
                        "coding": [
                            {
                                "code": "270427003",
                                "display": "Patient-initiated encounter",
                                "system": "http://snomed.info"
                            }
                        ],
                        "text": "Patient-initiated ambulatory encounter"
                    }
                ],
                "meta": {
                    "tag": [
                        {
                            "system": "https://smarthealthit.org/tags",
                            "code": "nhs"
                        }
                    ]
                }
            },
            "fullUrl": "/Encounter/nhs-976"
        },
        {
            "request": {
                "method": "PUT",
                "url": "Encounter/nhs-977"
            },
            "resource": {
                "class": {
                    "code": "ambulatory"
                },
                "id": "nhs-977",
                "period": {
                    "end": "2012-05-10",
                    "start": "2012-05-10"
                },
                "resourceType": "Encounter",
                "status": "finished",
                "subject": {
                    "reference": "Patient/nhs-7777701"
                },
                "text": {
                    "div": "<div xmlns=\"http://www.w3.org/1999/xhtml\">2012-05-10: ambulatory encounter</div>",
                    "status": "generated"
                },
                "type": [
                    {
                        "coding": [
                            {
                                "code": "270427003",
                                "display": "Patient-initiated encounter",
                                "system": "http://snomed.info"
                            }
                        ],
                        "text": "Patient-initiated ambulatory encounter"
                    }
                ],
                "meta": {
                    "tag": [
                        {
                            "system": "https://smarthealthit.org/tags",
                            "code": "nhs"
                        }
                    ]
                }
            },
            "fullUrl": "/Encounter/nhs-977"
        },
        {
            "request": {
                "method": "PUT",
                "url": "Encounter/nhs-978"
            },
            "resource": {
                "class": {
                    "code": "ambulatory"
                },
                "id": "nhs-978",
                "period": {
                    "end": "2012-05-16",
                    "start": "2012-05-16"
                },
                "resourceType": "Encounter",
                "status": "finished",
                "subject": {
                    "reference": "Patient/nhs-7777701"
                },
                "text": {
                    "div": "<div xmlns=\"http://www.w3.org/1999/xhtml\">2012-05-16: ambulatory encounter</div>",
                    "status": "generated"
                },
                "type": [
                    {
                        "coding": [
                            {
                                "code": "270427003",
                                "display": "Patient-initiated encounter",
                                "system": "http://snomed.info"
                            }
                        ],
                        "text": "Patient-initiated ambulatory encounter"
                    }
                ],
                "meta": {
                    "tag": [
                        {
                            "system": "https://smarthealthit.org/tags",
                            "code": "nhs"
                        }
                    ]
                }
            },
            "fullUrl": "/Encounter/nhs-978"
        },
        {
            "request": {
                "method": "PUT",
                "url": "Encounter/nhs-979"
            },
            "resource": {
                "class": {
                    "code": "ambulatory"
                },
                "id": "nhs-979",
                "period": {
                    "end": "2012-07-04",
                    "start": "2012-07-04"
                },
                "resourceType": "Encounter",
                "status": "finished",
                "subject": {
                    "reference": "Patient/nhs-7777701"
                },
                "text": {
                    "div": "<div xmlns=\"http://www.w3.org/1999/xhtml\">2012-07-04: ambulatory encounter</div>",
                    "status": "generated"
                },
                "type": [
                    {
                        "coding": [
                            {
                                "code": "270427003",
                                "display": "Patient-initiated encounter",
                                "system": "http://snomed.info"
                            }
                        ],
                        "text": "Patient-initiated ambulatory encounter"
                    }
                ],
                "meta": {
                    "tag": [
                        {
                            "system": "https://smarthealthit.org/tags",
                            "code": "nhs"
                        }
                    ]
                }
            },
            "fullUrl": "/Encounter/nhs-979"
        },
        {
            "request": {
                "method": "PUT",
                "url": "Encounter/nhs-980"
            },
            "resource": {
                "class": {
                    "code": "ambulatory"
                },
                "id": "nhs-980",
                "period": {
                    "end": "2012-08-22",
                    "start": "2012-08-22"
                },
                "resourceType": "Encounter",
                "status": "finished",
                "subject": {
                    "reference": "Patient/nhs-7777701"
                },
                "text": {
                    "div": "<div xmlns=\"http://www.w3.org/1999/xhtml\">2012-08-22: ambulatory encounter</div>",
                    "status": "generated"
                },
                "type": [
                    {
                        "coding": [
                            {
                                "code": "270427003",
                                "display": "Patient-initiated encounter",
                                "system": "http://snomed.info"
                            }
                        ],
                        "text": "Patient-initiated ambulatory encounter"
                    }
                ],
                "meta": {
                    "tag": [
                        {
                            "system": "https://smarthealthit.org/tags",
                            "code": "nhs"
                        }
                    ]
                }
            },
            "fullUrl": "/Encounter/nhs-980"
        },
        {
            "request": {
                "method": "PUT",
                "url": "Encounter/nhs-981"
            },
            "resource": {
                "class": {
                    "code": "ambulatory"
                },
                "id": "nhs-981",
                "period": {
                    "end": "2012-09-06",
                    "start": "2012-09-06"
                },
                "resourceType": "Encounter",
                "status": "finished",
                "subject": {
                    "reference": "Patient/nhs-7777701"
                },
                "text": {
                    "div": "<div xmlns=\"http://www.w3.org/1999/xhtml\">2012-09-06: ambulatory encounter</div>",
                    "status": "generated"
                },
                "type": [
                    {
                        "coding": [
                            {
                                "code": "270427003",
                                "display": "Patient-initiated encounter",
                                "system": "http://snomed.info"
                            }
                        ],
                        "text": "Patient-initiated ambulatory encounter"
                    }
                ],
                "meta": {
                    "tag": [
                        {
                            "system": "https://smarthealthit.org/tags",
                            "code": "nhs"
                        }
                    ]
                }
            },
            "fullUrl": "/Encounter/nhs-981"
        },
        {
            "request": {
                "method": "PUT",
                "url": "Encounter/nhs-982"
            },
            "resource": {
                "class": {
                    "code": "ambulatory"
                },
                "id": "nhs-982",
                "period": {
                    "end": "2012-10-22",
                    "start": "2012-10-22"
                },
                "resourceType": "Encounter",
                "status": "finished",
                "subject": {
                    "reference": "Patient/nhs-7777701"
                },
                "text": {
                    "div": "<div xmlns=\"http://www.w3.org/1999/xhtml\">2012-10-22: ambulatory encounter</div>",
                    "status": "generated"
                },
                "type": [
                    {
                        "coding": [
                            {
                                "code": "270427003",
                                "display": "Patient-initiated encounter",
                                "system": "http://snomed.info"
                            }
                        ],
                        "text": "Patient-initiated ambulatory encounter"
                    }
                ],
                "meta": {
                    "tag": [
                        {
                            "system": "https://smarthealthit.org/tags",
                            "code": "nhs"
                        }
                    ]
                }
            },
            "fullUrl": "/Encounter/nhs-982"
        },
        {
            "request": {
                "method": "PUT",
                "url": "Encounter/nhs-983"
            },
            "resource": {
                "class": {
                    "code": "ambulatory"
                },
                "id": "nhs-983",
                "period": {
                    "end": "2013-01-27",
                    "start": "2013-01-27"
                },
                "resourceType": "Encounter",
                "status": "finished",
                "subject": {
                    "reference": "Patient/nhs-7777701"
                },
                "text": {
                    "div": "<div xmlns=\"http://www.w3.org/1999/xhtml\">2013-01-27: ambulatory encounter</div>",
                    "status": "generated"
                },
                "type": [
                    {
                        "coding": [
                            {
                                "code": "270427003",
                                "display": "Patient-initiated encounter",
                                "system": "http://snomed.info"
                            }
                        ],
                        "text": "Patient-initiated ambulatory encounter"
                    }
                ],
                "meta": {
                    "tag": [
                        {
                            "system": "https://smarthealthit.org/tags",
                            "code": "nhs"
                        }
                    ]
                }
            },
            "fullUrl": "/Encounter/nhs-983"
        },
        {
            "request": {
                "method": "PUT",
                "url": "Observation/nhs-1503-weight"
            },
            "resource": {
                "category": [
                    {
                        "coding": [
                            {
                                "code": "vital-signs",
                                "display": "Vital Signs",
                                "system": "http://hl7.org/fhir/observation-category"
                            }
                        ],
                        "text": "Vital Signs"
                    }
                ],
                "code": {
                    "coding": [
                        {
                            "code": "3141-9",
                            "display": "weight",
                            "system": "http://loinc.org"
                        }
                    ],
                    "text": "weight"
                },
                "context": {
                    "reference": "Encounter/nhs-967"
                },
                "effectiveDateTime": "2011-09-16",
                "id": "nhs-1503-weight",
                "identifier": [
                    {
                        "system": "http://www.bmc.nl/zorgportal/identifiers/observations",
                        "use": "official",
                        "value": "nhs-1503-weight"
                    }
                ],
                "performer": [
                    {
                        "reference": "Practitioner/nhs-Practitioner-71081332"
                    }
                ],
                "resourceType": "Observation",
                "status": "unknown",
                "subject": {
                    "reference": "Patient/nhs-7777701"
                },
                "text": {
                    "div": "<div xmlns=\"http://www.w3.org/1999/xhtml\">2011-09-16: weight = 0.977 kg</div>",
                    "status": "generated"
                },
                "valueQuantity": {
                    "code": "kg",
                    "system": "http://unitsofmeasure.org",
                    "unit": "kg",
                    "value": 0.977
                },
                "meta": {
                    "tag": [
                        {
                            "system": "https://smarthealthit.org/tags",
                            "code": "nhs"
                        }
                    ]
                }
            },
            "fullUrl": "/Observation/nhs-1503-weight"
        },
        {
            "request": {
                "method": "PUT",
                "url": "Observation/nhs-1504-height"
            },
            "resource": {
                "category": [
                    {
                        "coding": [
                            {
                                "code": "vital-signs",
                                "display": "Vital Signs",
                                "system": "http://hl7.org/fhir/observation-category"
                            }
                        ],
                        "text": "Vital Signs"
                    }
                ],
                "code": {
                    "coding": [
                        {
                            "code": "8302-2",
                            "display": "height",
                            "system": "http://loinc.org"
                        }
                    ],
                    "text": "height"
                },
                "context": {
                    "reference": "Encounter/nhs-968"
                },
                "effectiveDateTime": "2011-11-22",
                "id": "nhs-1504-height",
                "identifier": [
                    {
                        "system": "http://www.bmc.nl/zorgportal/identifiers/observations",
                        "use": "official",
                        "value": "nhs-1504-height"
                    }
                ],
                "performer": [
                    {
                        "reference": "Practitioner/nhs-Practitioner-71081332"
                    }
                ],
                "resourceType": "Observation",
                "status": "unknown",
                "subject": {
                    "reference": "Patient/nhs-7777701"
                },
                "text": {
                    "div": "<div xmlns=\"http://www.w3.org/1999/xhtml\">2011-11-22: height = 45.0 cm</div>",
                    "status": "generated"
                },
                "valueQuantity": {
                    "code": "cm",
                    "system": "http://unitsofmeasure.org",
                    "unit": "cm",
                    "value": 45
                },
                "meta": {
                    "tag": [
                        {
                            "system": "https://smarthealthit.org/tags",
                            "code": "nhs"
                        }
                    ]
                }
            },
            "fullUrl": "/Observation/nhs-1504-height"
        },
        {
            "request": {
                "method": "PUT",
                "url": "Observation/nhs-1505-weight"
            },
            "resource": {
                "category": [
                    {
                        "coding": [
                            {
                                "code": "vital-signs",
                                "display": "Vital Signs",
                                "system": "http://hl7.org/fhir/observation-category"
                            }
                        ],
                        "text": "Vital Signs"
                    }
                ],
                "code": {
                    "coding": [
                        {
                            "code": "3141-9",
                            "display": "weight",
                            "system": "http://loinc.org"
                        }
                    ],
                    "text": "weight"
                },
                "context": {
                    "reference": "Encounter/nhs-968"
                },
                "effectiveDateTime": "2011-11-22",
                "id": "nhs-1505-weight",
                "identifier": [
                    {
                        "system": "http://www.bmc.nl/zorgportal/identifiers/observations",
                        "use": "official",
                        "value": "nhs-1505-weight"
                    }
                ],
                "performer": [
                    {
                        "reference": "Practitioner/nhs-Practitioner-71081332"
                    }
                ],
                "resourceType": "Observation",
                "status": "unknown",
                "subject": {
                    "reference": "Patient/nhs-7777701"
                },
                "text": {
                    "div": "<div xmlns=\"http://www.w3.org/1999/xhtml\">2011-11-22: weight = 2.382 kg</div>",
                    "status": "generated"
                },
                "valueQuantity": {
                    "code": "kg",
                    "system": "http://unitsofmeasure.org",
                    "unit": "kg",
                    "value": 2.382
                },
                "meta": {
                    "tag": [
                        {
                            "system": "https://smarthealthit.org/tags",
                            "code": "nhs"
                        }
                    ]
                }
            },
            "fullUrl": "/Observation/nhs-1505-weight"
        },
        {
            "request": {
                "method": "PUT",
                "url": "Observation/nhs-1506-height"
            },
            "resource": {
                "category": [
                    {
                        "coding": [
                            {
                                "code": "vital-signs",
                                "display": "Vital Signs",
                                "system": "http://hl7.org/fhir/observation-category"
                            }
                        ],
                        "text": "Vital Signs"
                    }
                ],
                "code": {
                    "coding": [
                        {
                            "code": "8302-2",
                            "display": "height",
                            "system": "http://loinc.org"
                        }
                    ],
                    "text": "height"
                },
                "context": {
                    "reference": "Encounter/nhs-969"
                },
                "effectiveDateTime": "2011-12-01",
                "id": "nhs-1506-height",
                "identifier": [
                    {
                        "system": "http://www.bmc.nl/zorgportal/identifiers/observations",
                        "use": "official",
                        "value": "nhs-1506-height"
                    }
                ],
                "performer": [
                    {
                        "reference": "Practitioner/nhs-Practitioner-71081332"
                    }
                ],
                "resourceType": "Observation",
                "status": "unknown",
                "subject": {
                    "reference": "Patient/nhs-7777701"
                },
                "text": {
                    "div": "<div xmlns=\"http://www.w3.org/1999/xhtml\">2011-12-01: height = 46.2 cm</div>",
                    "status": "generated"
                },
                "valueQuantity": {
                    "code": "cm",
                    "system": "http://unitsofmeasure.org",
                    "unit": "cm",
                    "value": 46.2
                },
                "meta": {
                    "tag": [
                        {
                            "system": "https://smarthealthit.org/tags",
                            "code": "nhs"
                        }
                    ]
                }
            },
            "fullUrl": "/Observation/nhs-1506-height"
        },
        {
            "request": {
                "method": "PUT",
                "url": "Observation/nhs-1507-weight"
            },
            "resource": {
                "category": [
                    {
                        "coding": [
                            {
                                "code": "vital-signs",
                                "display": "Vital Signs",
                                "system": "http://hl7.org/fhir/observation-category"
                            }
                        ],
                        "text": "Vital Signs"
                    }
                ],
                "code": {
                    "coding": [
                        {
                            "code": "3141-9",
                            "display": "weight",
                            "system": "http://loinc.org"
                        }
                    ],
                    "text": "weight"
                },
                "context": {
                    "reference": "Encounter/nhs-969"
                },
                "effectiveDateTime": "2011-12-01",
                "id": "nhs-1507-weight",
                "identifier": [
                    {
                        "system": "http://www.bmc.nl/zorgportal/identifiers/observations",
                        "use": "official",
                        "value": "nhs-1507-weight"
                    }
                ],
                "performer": [
                    {
                        "reference": "Practitioner/nhs-Practitioner-71081332"
                    }
                ],
                "resourceType": "Observation",
                "status": "unknown",
                "subject": {
                    "reference": "Patient/nhs-7777701"
                },
                "text": {
                    "div": "<div xmlns=\"http://www.w3.org/1999/xhtml\">2011-12-01: weight = 2.636 kg</div>",
                    "status": "generated"
                },
                "valueQuantity": {
                    "code": "kg",
                    "system": "http://unitsofmeasure.org",
                    "unit": "kg",
                    "value": 2.636
                },
                "meta": {
                    "tag": [
                        {
                            "system": "https://smarthealthit.org/tags",
                            "code": "nhs"
                        }
                    ]
                }
            },
            "fullUrl": "/Observation/nhs-1507-weight"
        },
        {
            "request": {
                "method": "PUT",
                "url": "Observation/nhs-1508-height"
            },
            "resource": {
                "category": [
                    {
                        "coding": [
                            {
                                "code": "vital-signs",
                                "display": "Vital Signs",
                                "system": "http://hl7.org/fhir/observation-category"
                            }
                        ],
                        "text": "Vital Signs"
                    }
                ],
                "code": {
                    "coding": [
                        {
                            "code": "8302-2",
                            "display": "height",
                            "system": "http://loinc.org"
                        }
                    ],
                    "text": "height"
                },
                "context": {
                    "reference": "Encounter/nhs-970"
                },
                "effectiveDateTime": "2011-12-16",
                "id": "nhs-1508-height",
                "identifier": [
                    {
                        "system": "http://www.bmc.nl/zorgportal/identifiers/observations",
                        "use": "official",
                        "value": "nhs-1508-height"
                    }
                ],
                "performer": [
                    {
                        "reference": "Practitioner/nhs-Practitioner-71081332"
                    }
                ],
                "resourceType": "Observation",
                "status": "unknown",
                "subject": {
                    "reference": "Patient/nhs-7777701"
                },
                "text": {
                    "div": "<div xmlns=\"http://www.w3.org/1999/xhtml\">2011-12-16: height = 48.5 cm</div>",
                    "status": "generated"
                },
                "valueQuantity": {
                    "code": "cm",
                    "system": "http://unitsofmeasure.org",
                    "unit": "cm",
                    "value": 48.5
                },
                "meta": {
                    "tag": [
                        {
                            "system": "https://smarthealthit.org/tags",
                            "code": "nhs"
                        }
                    ]
                }
            },
            "fullUrl": "/Observation/nhs-1508-height"
        },
        {
            "request": {
                "method": "PUT",
                "url": "Observation/nhs-1509-weight"
            },
            "resource": {
                "category": [
                    {
                        "coding": [
                            {
                                "code": "vital-signs",
                                "display": "Vital Signs",
                                "system": "http://hl7.org/fhir/observation-category"
                            }
                        ],
                        "text": "Vital Signs"
                    }
                ],
                "code": {
                    "coding": [
                        {
                            "code": "3141-9",
                            "display": "weight",
                            "system": "http://loinc.org"
                        }
                    ],
                    "text": "weight"
                },
                "context": {
                    "reference": "Encounter/nhs-970"
                },
                "effectiveDateTime": "2011-12-16",
                "id": "nhs-1509-weight",
                "identifier": [
                    {
                        "system": "http://www.bmc.nl/zorgportal/identifiers/observations",
                        "use": "official",
                        "value": "nhs-1509-weight"
                    }
                ],
                "performer": [
                    {
                        "reference": "Practitioner/nhs-Practitioner-71081332"
                    }
                ],
                "resourceType": "Observation",
                "status": "unknown",
                "subject": {
                    "reference": "Patient/nhs-7777701"
                },
                "text": {
                    "div": "<div xmlns=\"http://www.w3.org/1999/xhtml\">2011-12-16: weight = 3.0 kg</div>",
                    "status": "generated"
                },
                "valueQuantity": {
                    "code": "kg",
                    "system": "http://unitsofmeasure.org",
                    "unit": "kg",
                    "value": 3
                },
                "meta": {
                    "tag": [
                        {
                            "system": "https://smarthealthit.org/tags",
                            "code": "nhs"
                        }
                    ]
                }
            },
            "fullUrl": "/Observation/nhs-1509-weight"
        },
        {
            "request": {
                "method": "PUT",
                "url": "Observation/nhs-1510-weight"
            },
            "resource": {
                "category": [
                    {
                        "coding": [
                            {
                                "code": "vital-signs",
                                "display": "Vital Signs",
                                "system": "http://hl7.org/fhir/observation-category"
                            }
                        ],
                        "text": "Vital Signs"
                    }
                ],
                "code": {
                    "coding": [
                        {
                            "code": "3141-9",
                            "display": "weight",
                            "system": "http://loinc.org"
                        }
                    ],
                    "text": "weight"
                },
                "context": {
                    "reference": "Encounter/nhs-971"
                },
                "effectiveDateTime": "2012-01-10",
                "id": "nhs-1510-weight",
                "identifier": [
                    {
                        "system": "http://www.bmc.nl/zorgportal/identifiers/observations",
                        "use": "official",
                        "value": "nhs-1510-weight"
                    }
                ],
                "performer": [
                    {
                        "reference": "Practitioner/nhs-Practitioner-71081332"
                    }
                ],
                "resourceType": "Observation",
                "status": "unknown",
                "subject": {
                    "reference": "Patient/nhs-7777701"
                },
                "text": {
                    "div": "<div xmlns=\"http://www.w3.org/1999/xhtml\">2012-01-10: weight = 4.1 kg</div>",
                    "status": "generated"
                },
                "valueQuantity": {
                    "code": "kg",
                    "system": "http://unitsofmeasure.org",
                    "unit": "kg",
                    "value": 4.1
                },
                "meta": {
                    "tag": [
                        {
                            "system": "https://smarthealthit.org/tags",
                            "code": "nhs"
                        }
                    ]
                }
            },
            "fullUrl": "/Observation/nhs-1510-weight"
        },
        {
            "request": {
                "method": "PUT",
                "url": "Observation/nhs-1511-weight"
            },
            "resource": {
                "category": [
                    {
                        "coding": [
                            {
                                "code": "vital-signs",
                                "display": "Vital Signs",
                                "system": "http://hl7.org/fhir/observation-category"
                            }
                        ],
                        "text": "Vital Signs"
                    }
                ],
                "code": {
                    "coding": [
                        {
                            "code": "3141-9",
                            "display": "weight",
                            "system": "http://loinc.org"
                        }
                    ],
                    "text": "weight"
                },
                "context": {
                    "reference": "Encounter/nhs-972"
                },
                "effectiveDateTime": "2012-02-03",
                "id": "nhs-1511-weight",
                "identifier": [
                    {
                        "system": "http://www.bmc.nl/zorgportal/identifiers/observations",
                        "use": "official",
                        "value": "nhs-1511-weight"
                    }
                ],
                "performer": [
                    {
                        "reference": "Practitioner/nhs-Practitioner-71081332"
                    }
                ],
                "resourceType": "Observation",
                "status": "unknown",
                "subject": {
                    "reference": "Patient/nhs-7777701"
                },
                "text": {
                    "div": "<div xmlns=\"http://www.w3.org/1999/xhtml\">2012-02-03: weight = 4.6 kg</div>",
                    "status": "generated"
                },
                "valueQuantity": {
                    "code": "kg",
                    "system": "http://unitsofmeasure.org",
                    "unit": "kg",
                    "value": 4.6
                },
                "meta": {
                    "tag": [
                        {
                            "system": "https://smarthealthit.org/tags",
                            "code": "nhs"
                        }
                    ]
                }
            },
            "fullUrl": "/Observation/nhs-1511-weight"
        },
        {
            "request": {
                "method": "PUT",
                "url": "Observation/nhs-1512-weight"
            },
            "resource": {
                "category": [
                    {
                        "coding": [
                            {
                                "code": "vital-signs",
                                "display": "Vital Signs",
                                "system": "http://hl7.org/fhir/observation-category"
                            }
                        ],
                        "text": "Vital Signs"
                    }
                ],
                "code": {
                    "coding": [
                        {
                            "code": "3141-9",
                            "display": "weight",
                            "system": "http://loinc.org"
                        }
                    ],
                    "text": "weight"
                },
                "context": {
                    "reference": "Encounter/nhs-973"
                },
                "effectiveDateTime": "2012-02-09",
                "id": "nhs-1512-weight",
                "identifier": [
                    {
                        "system": "http://www.bmc.nl/zorgportal/identifiers/observations",
                        "use": "official",
                        "value": "nhs-1512-weight"
                    }
                ],
                "performer": [
                    {
                        "reference": "Practitioner/nhs-Practitioner-71081332"
                    }
                ],
                "resourceType": "Observation",
                "status": "unknown",
                "subject": {
                    "reference": "Patient/nhs-7777701"
                },
                "text": {
                    "div": "<div xmlns=\"http://www.w3.org/1999/xhtml\">2012-02-09: weight = 4.7 kg</div>",
                    "status": "generated"
                },
                "valueQuantity": {
                    "code": "kg",
                    "system": "http://unitsofmeasure.org",
                    "unit": "kg",
                    "value": 4.7
                },
                "meta": {
                    "tag": [
                        {
                            "system": "https://smarthealthit.org/tags",
                            "code": "nhs"
                        }
                    ]
                }
            },
            "fullUrl": "/Observation/nhs-1512-weight"
        },
        {
            "request": {
                "method": "PUT",
                "url": "Observation/nhs-1513-height"
            },
            "resource": {
                "category": [
                    {
                        "coding": [
                            {
                                "code": "vital-signs",
                                "display": "Vital Signs",
                                "system": "http://hl7.org/fhir/observation-category"
                            }
                        ],
                        "text": "Vital Signs"
                    }
                ],
                "code": {
                    "coding": [
                        {
                            "code": "8302-2",
                            "display": "height",
                            "system": "http://loinc.org"
                        }
                    ],
                    "text": "height"
                },
                "context": {
                    "reference": "Encounter/nhs-974"
                },
                "effectiveDateTime": "2012-03-10",
                "id": "nhs-1513-height",
                "identifier": [
                    {
                        "system": "http://www.bmc.nl/zorgportal/identifiers/observations",
                        "use": "official",
                        "value": "nhs-1513-height"
                    }
                ],
                "performer": [
                    {
                        "reference": "Practitioner/nhs-Practitioner-71081332"
                    }
                ],
                "resourceType": "Observation",
                "status": "unknown",
                "subject": {
                    "reference": "Patient/nhs-7777701"
                },
                "text": {
                    "div": "<div xmlns=\"http://www.w3.org/1999/xhtml\">2012-03-10: height = 58.5 cm</div>",
                    "status": "generated"
                },
                "valueQuantity": {
                    "code": "cm",
                    "system": "http://unitsofmeasure.org",
                    "unit": "cm",
                    "value": 58.5
                },
                "meta": {
                    "tag": [
                        {
                            "system": "https://smarthealthit.org/tags",
                            "code": "nhs"
                        }
                    ]
                }
            },
            "fullUrl": "/Observation/nhs-1513-height"
        },
        {
            "request": {
                "method": "PUT",
                "url": "Observation/nhs-1514-weight"
            },
            "resource": {
                "category": [
                    {
                        "coding": [
                            {
                                "code": "vital-signs",
                                "display": "Vital Signs",
                                "system": "http://hl7.org/fhir/observation-category"
                            }
                        ],
                        "text": "Vital Signs"
                    }
                ],
                "code": {
                    "coding": [
                        {
                            "code": "3141-9",
                            "display": "weight",
                            "system": "http://loinc.org"
                        }
                    ],
                    "text": "weight"
                },
                "context": {
                    "reference": "Encounter/nhs-974"
                },
                "effectiveDateTime": "2012-03-10",
                "id": "nhs-1514-weight",
                "identifier": [
                    {
                        "system": "http://www.bmc.nl/zorgportal/identifiers/observations",
                        "use": "official",
                        "value": "nhs-1514-weight"
                    }
                ],
                "performer": [
                    {
                        "reference": "Practitioner/nhs-Practitioner-71081332"
                    }
                ],
                "resourceType": "Observation",
                "status": "unknown",
                "subject": {
                    "reference": "Patient/nhs-7777701"
                },
                "text": {
                    "div": "<div xmlns=\"http://www.w3.org/1999/xhtml\">2012-03-10: weight = 5.4 kg</div>",
                    "status": "generated"
                },
                "valueQuantity": {
                    "code": "kg",
                    "system": "http://unitsofmeasure.org",
                    "unit": "kg",
                    "value": 5.4
                },
                "meta": {
                    "tag": [
                        {
                            "system": "https://smarthealthit.org/tags",
                            "code": "nhs"
                        }
                    ]
                }
            },
            "fullUrl": "/Observation/nhs-1514-weight"
        },
        {
            "request": {
                "method": "PUT",
                "url": "Observation/nhs-1515-height"
            },
            "resource": {
                "category": [
                    {
                        "coding": [
                            {
                                "code": "vital-signs",
                                "display": "Vital Signs",
                                "system": "http://hl7.org/fhir/observation-category"
                            }
                        ],
                        "text": "Vital Signs"
                    }
                ],
                "code": {
                    "coding": [
                        {
                            "code": "8302-2",
                            "display": "height",
                            "system": "http://loinc.org"
                        }
                    ],
                    "text": "height"
                },
                "context": {
                    "reference": "Encounter/nhs-975"
                },
                "effectiveDateTime": "2012-03-20",
                "id": "nhs-1515-height",
                "identifier": [
                    {
                        "system": "http://www.bmc.nl/zorgportal/identifiers/observations",
                        "use": "official",
                        "value": "nhs-1515-height"
                    }
                ],
                "performer": [
                    {
                        "reference": "Practitioner/nhs-Practitioner-71081332"
                    }
                ],
                "resourceType": "Observation",
                "status": "unknown",
                "subject": {
                    "reference": "Patient/nhs-7777701"
                },
                "text": {
                    "div": "<div xmlns=\"http://www.w3.org/1999/xhtml\">2012-03-20: height = 58.7 cm</div>",
                    "status": "generated"
                },
                "valueQuantity": {
                    "code": "cm",
                    "system": "http://unitsofmeasure.org",
                    "unit": "cm",
                    "value": 58.7
                },
                "meta": {
                    "tag": [
                        {
                            "system": "https://smarthealthit.org/tags",
                            "code": "nhs"
                        }
                    ]
                }
            },
            "fullUrl": "/Observation/nhs-1515-height"
        },
        {
            "request": {
                "method": "PUT",
                "url": "Observation/nhs-1516-weight"
            },
            "resource": {
                "category": [
                    {
                        "coding": [
                            {
                                "code": "vital-signs",
                                "display": "Vital Signs",
                                "system": "http://hl7.org/fhir/observation-category"
                            }
                        ],
                        "text": "Vital Signs"
                    }
                ],
                "code": {
                    "coding": [
                        {
                            "code": "3141-9",
                            "display": "weight",
                            "system": "http://loinc.org"
                        }
                    ],
                    "text": "weight"
                },
                "context": {
                    "reference": "Encounter/nhs-975"
                },
                "effectiveDateTime": "2012-03-20",
                "id": "nhs-1516-weight",
                "identifier": [
                    {
                        "system": "http://www.bmc.nl/zorgportal/identifiers/observations",
                        "use": "official",
                        "value": "nhs-1516-weight"
                    }
                ],
                "performer": [
                    {
                        "reference": "Practitioner/nhs-Practitioner-71081332"
                    }
                ],
                "resourceType": "Observation",
                "status": "unknown",
                "subject": {
                    "reference": "Patient/nhs-7777701"
                },
                "text": {
                    "div": "<div xmlns=\"http://www.w3.org/1999/xhtml\">2012-03-20: weight = 5.5 kg</div>",
                    "status": "generated"
                },
                "valueQuantity": {
                    "code": "kg",
                    "system": "http://unitsofmeasure.org",
                    "unit": "kg",
                    "value": 5.5
                },
                "meta": {
                    "tag": [
                        {
                            "system": "https://smarthealthit.org/tags",
                            "code": "nhs"
                        }
                    ]
                }
            },
            "fullUrl": "/Observation/nhs-1516-weight"
        },
        {
            "request": {
                "method": "PUT",
                "url": "Observation/nhs-1517-height"
            },
            "resource": {
                "category": [
                    {
                        "coding": [
                            {
                                "code": "vital-signs",
                                "display": "Vital Signs",
                                "system": "http://hl7.org/fhir/observation-category"
                            }
                        ],
                        "text": "Vital Signs"
                    }
                ],
                "code": {
                    "coding": [
                        {
                            "code": "8302-2",
                            "display": "height",
                            "system": "http://loinc.org"
                        }
                    ],
                    "text": "height"
                },
                "context": {
                    "reference": "Encounter/nhs-976"
                },
                "effectiveDateTime": "2012-04-10",
                "id": "nhs-1517-height",
                "identifier": [
                    {
                        "system": "http://www.bmc.nl/zorgportal/identifiers/observations",
                        "use": "official",
                        "value": "nhs-1517-height"
                    }
                ],
                "performer": [
                    {
                        "reference": "Practitioner/nhs-Practitioner-71081332"
                    }
                ],
                "resourceType": "Observation",
                "status": "unknown",
                "subject": {
                    "reference": "Patient/nhs-7777701"
                },
                "text": {
                    "div": "<div xmlns=\"http://www.w3.org/1999/xhtml\">2012-04-10: height = 61.7 cm</div>",
                    "status": "generated"
                },
                "valueQuantity": {
                    "code": "cm",
                    "system": "http://unitsofmeasure.org",
                    "unit": "cm",
                    "value": 61.7
                },
                "meta": {
                    "tag": [
                        {
                            "system": "https://smarthealthit.org/tags",
                            "code": "nhs"
                        }
                    ]
                }
            },
            "fullUrl": "/Observation/nhs-1517-height"
        },
        {
            "request": {
                "method": "PUT",
                "url": "Observation/nhs-1518-weight"
            },
            "resource": {
                "category": [
                    {
                        "coding": [
                            {
                                "code": "vital-signs",
                                "display": "Vital Signs",
                                "system": "http://hl7.org/fhir/observation-category"
                            }
                        ],
                        "text": "Vital Signs"
                    }
                ],
                "code": {
                    "coding": [
                        {
                            "code": "3141-9",
                            "display": "weight",
                            "system": "http://loinc.org"
                        }
                    ],
                    "text": "weight"
                },
                "context": {
                    "reference": "Encounter/nhs-976"
                },
                "effectiveDateTime": "2012-04-10",
                "id": "nhs-1518-weight",
                "identifier": [
                    {
                        "system": "http://www.bmc.nl/zorgportal/identifiers/observations",
                        "use": "official",
                        "value": "nhs-1518-weight"
                    }
                ],
                "performer": [
                    {
                        "reference": "Practitioner/nhs-Practitioner-71081332"
                    }
                ],
                "resourceType": "Observation",
                "status": "unknown",
                "subject": {
                    "reference": "Patient/nhs-7777701"
                },
                "text": {
                    "div": "<div xmlns=\"http://www.w3.org/1999/xhtml\">2012-04-10: weight = 5.9 kg</div>",
                    "status": "generated"
                },
                "valueQuantity": {
                    "code": "kg",
                    "system": "http://unitsofmeasure.org",
                    "unit": "kg",
                    "value": 5.9
                },
                "meta": {
                    "tag": [
                        {
                            "system": "https://smarthealthit.org/tags",
                            "code": "nhs"
                        }
                    ]
                }
            },
            "fullUrl": "/Observation/nhs-1518-weight"
        },
        {
            "request": {
                "method": "PUT",
                "url": "Observation/nhs-1519-height"
            },
            "resource": {
                "category": [
                    {
                        "coding": [
                            {
                                "code": "vital-signs",
                                "display": "Vital Signs",
                                "system": "http://hl7.org/fhir/observation-category"
                            }
                        ],
                        "text": "Vital Signs"
                    }
                ],
                "code": {
                    "coding": [
                        {
                            "code": "8302-2",
                            "display": "height",
                            "system": "http://loinc.org"
                        }
                    ],
                    "text": "height"
                },
                "context": {
                    "reference": "Encounter/nhs-977"
                },
                "effectiveDateTime": "2012-05-10",
                "id": "nhs-1519-height",
                "identifier": [
                    {
                        "system": "http://www.bmc.nl/zorgportal/identifiers/observations",
                        "use": "official",
                        "value": "nhs-1519-height"
                    }
                ],
                "performer": [
                    {
                        "reference": "Practitioner/nhs-Practitioner-71081332"
                    }
                ],
                "resourceType": "Observation",
                "status": "unknown",
                "subject": {
                    "reference": "Patient/nhs-7777701"
                },
                "text": {
                    "div": "<div xmlns=\"http://www.w3.org/1999/xhtml\">2012-05-10: height = 62.8 cm</div>",
                    "status": "generated"
                },
                "valueQuantity": {
                    "code": "cm",
                    "system": "http://unitsofmeasure.org",
                    "unit": "cm",
                    "value": 62.8
                },
                "meta": {
                    "tag": [
                        {
                            "system": "https://smarthealthit.org/tags",
                            "code": "nhs"
                        }
                    ]
                }
            },
            "fullUrl": "/Observation/nhs-1519-height"
        },
        {
            "request": {
                "method": "PUT",
                "url": "Observation/nhs-1520-weight"
            },
            "resource": {
                "category": [
                    {
                        "coding": [
                            {
                                "code": "vital-signs",
                                "display": "Vital Signs",
                                "system": "http://hl7.org/fhir/observation-category"
                            }
                        ],
                        "text": "Vital Signs"
                    }
                ],
                "code": {
                    "coding": [
                        {
                            "code": "3141-9",
                            "display": "weight",
                            "system": "http://loinc.org"
                        }
                    ],
                    "text": "weight"
                },
                "context": {
                    "reference": "Encounter/nhs-977"
                },
                "effectiveDateTime": "2012-05-10",
                "id": "nhs-1520-weight",
                "identifier": [
                    {
                        "system": "http://www.bmc.nl/zorgportal/identifiers/observations",
                        "use": "official",
                        "value": "nhs-1520-weight"
                    }
                ],
                "performer": [
                    {
                        "reference": "Practitioner/nhs-Practitioner-71081332"
                    }
                ],
                "resourceType": "Observation",
                "status": "unknown",
                "subject": {
                    "reference": "Patient/nhs-7777701"
                },
                "text": {
                    "div": "<div xmlns=\"http://www.w3.org/1999/xhtml\">2012-05-10: weight = 6.4 kg</div>",
                    "status": "generated"
                },
                "valueQuantity": {
                    "code": "kg",
                    "system": "http://unitsofmeasure.org",
                    "unit": "kg",
                    "value": 6.4
                },
                "meta": {
                    "tag": [
                        {
                            "system": "https://smarthealthit.org/tags",
                            "code": "nhs"
                        }
                    ]
                }
            },
            "fullUrl": "/Observation/nhs-1520-weight"
        },
        {
            "request": {
                "method": "PUT",
                "url": "Observation/nhs-1521-height"
            },
            "resource": {
                "category": [
                    {
                        "coding": [
                            {
                                "code": "vital-signs",
                                "display": "Vital Signs",
                                "system": "http://hl7.org/fhir/observation-category"
                            }
                        ],
                        "text": "Vital Signs"
                    }
                ],
                "code": {
                    "coding": [
                        {
                            "code": "8302-2",
                            "display": "height",
                            "system": "http://loinc.org"
                        }
                    ],
                    "text": "height"
                },
                "context": {
                    "reference": "Encounter/nhs-978"
                },
                "effectiveDateTime": "2012-05-16",
                "id": "nhs-1521-height",
                "identifier": [
                    {
                        "system": "http://www.bmc.nl/zorgportal/identifiers/observations",
                        "use": "official",
                        "value": "nhs-1521-height"
                    }
                ],
                "performer": [
                    {
                        "reference": "Practitioner/nhs-Practitioner-71081332"
                    }
                ],
                "resourceType": "Observation",
                "status": "unknown",
                "subject": {
                    "reference": "Patient/nhs-7777701"
                },
                "text": {
                    "div": "<div xmlns=\"http://www.w3.org/1999/xhtml\">2012-05-16: height = 64.2 cm</div>",
                    "status": "generated"
                },
                "valueQuantity": {
                    "code": "cm",
                    "system": "http://unitsofmeasure.org",
                    "unit": "cm",
                    "value": 64.2
                },
                "meta": {
                    "tag": [
                        {
                            "system": "https://smarthealthit.org/tags",
                            "code": "nhs"
                        }
                    ]
                }
            },
            "fullUrl": "/Observation/nhs-1521-height"
        },
        {
            "request": {
                "method": "PUT",
                "url": "Observation/nhs-1522-weight"
            },
            "resource": {
                "category": [
                    {
                        "coding": [
                            {
                                "code": "vital-signs",
                                "display": "Vital Signs",
                                "system": "http://hl7.org/fhir/observation-category"
                            }
                        ],
                        "text": "Vital Signs"
                    }
                ],
                "code": {
                    "coding": [
                        {
                            "code": "3141-9",
                            "display": "weight",
                            "system": "http://loinc.org"
                        }
                    ],
                    "text": "weight"
                },
                "context": {
                    "reference": "Encounter/nhs-978"
                },
                "effectiveDateTime": "2012-05-16",
                "id": "nhs-1522-weight",
                "identifier": [
                    {
                        "system": "http://www.bmc.nl/zorgportal/identifiers/observations",
                        "use": "official",
                        "value": "nhs-1522-weight"
                    }
                ],
                "performer": [
                    {
                        "reference": "Practitioner/nhs-Practitioner-71081332"
                    }
                ],
                "resourceType": "Observation",
                "status": "unknown",
                "subject": {
                    "reference": "Patient/nhs-7777701"
                },
                "text": {
                    "div": "<div xmlns=\"http://www.w3.org/1999/xhtml\">2012-05-16: weight = 6.5 kg</div>",
                    "status": "generated"
                },
                "valueQuantity": {
                    "code": "kg",
                    "system": "http://unitsofmeasure.org",
                    "unit": "kg",
                    "value": 6.5
                },
                "meta": {
                    "tag": [
                        {
                            "system": "https://smarthealthit.org/tags",
                            "code": "nhs"
                        }
                    ]
                }
            },
            "fullUrl": "/Observation/nhs-1522-weight"
        },
        {
            "request": {
                "method": "PUT",
                "url": "Observation/nhs-1523-height"
            },
            "resource": {
                "category": [
                    {
                        "coding": [
                            {
                                "code": "vital-signs",
                                "display": "Vital Signs",
                                "system": "http://hl7.org/fhir/observation-category"
                            }
                        ],
                        "text": "Vital Signs"
                    }
                ],
                "code": {
                    "coding": [
                        {
                            "code": "8302-2",
                            "display": "height",
                            "system": "http://loinc.org"
                        }
                    ],
                    "text": "height"
                },
                "context": {
                    "reference": "Encounter/nhs-979"
                },
                "effectiveDateTime": "2012-07-04",
                "id": "nhs-1523-height",
                "identifier": [
                    {
                        "system": "http://www.bmc.nl/zorgportal/identifiers/observations",
                        "use": "official",
                        "value": "nhs-1523-height"
                    }
                ],
                "performer": [
                    {
                        "reference": "Practitioner/nhs-Practitioner-71081332"
                    }
                ],
                "resourceType": "Observation",
                "status": "unknown",
                "subject": {
                    "reference": "Patient/nhs-7777701"
                },
                "text": {
                    "div": "<div xmlns=\"http://www.w3.org/1999/xhtml\">2012-07-04: height = 66.0 cm</div>",
                    "status": "generated"
                },
                "valueQuantity": {
                    "code": "cm",
                    "system": "http://unitsofmeasure.org",
                    "unit": "cm",
                    "value": 66
                },
                "meta": {
                    "tag": [
                        {
                            "system": "https://smarthealthit.org/tags",
                            "code": "nhs"
                        }
                    ]
                }
            },
            "fullUrl": "/Observation/nhs-1523-height"
        },
        {
            "request": {
                "method": "PUT",
                "url": "Observation/nhs-1524-weight"
            },
            "resource": {
                "category": [
                    {
                        "coding": [
                            {
                                "code": "vital-signs",
                                "display": "Vital Signs",
                                "system": "http://hl7.org/fhir/observation-category"
                            }
                        ],
                        "text": "Vital Signs"
                    }
                ],
                "code": {
                    "coding": [
                        {
                            "code": "3141-9",
                            "display": "weight",
                            "system": "http://loinc.org"
                        }
                    ],
                    "text": "weight"
                },
                "context": {
                    "reference": "Encounter/nhs-979"
                },
                "effectiveDateTime": "2012-07-04",
                "id": "nhs-1524-weight",
                "identifier": [
                    {
                        "system": "http://www.bmc.nl/zorgportal/identifiers/observations",
                        "use": "official",
                        "value": "nhs-1524-weight"
                    }
                ],
                "performer": [
                    {
                        "reference": "Practitioner/nhs-Practitioner-71081332"
                    }
                ],
                "resourceType": "Observation",
                "status": "unknown",
                "subject": {
                    "reference": "Patient/nhs-7777701"
                },
                "text": {
                    "div": "<div xmlns=\"http://www.w3.org/1999/xhtml\">2012-07-04: weight = 7.2 kg</div>",
                    "status": "generated"
                },
                "valueQuantity": {
                    "code": "kg",
                    "system": "http://unitsofmeasure.org",
                    "unit": "kg",
                    "value": 7.2
                },
                "meta": {
                    "tag": [
                        {
                            "system": "https://smarthealthit.org/tags",
                            "code": "nhs"
                        }
                    ]
                }
            },
            "fullUrl": "/Observation/nhs-1524-weight"
        },
        {
            "request": {
                "method": "PUT",
                "url": "Observation/nhs-1525-weight"
            },
            "resource": {
                "category": [
                    {
                        "coding": [
                            {
                                "code": "vital-signs",
                                "display": "Vital Signs",
                                "system": "http://hl7.org/fhir/observation-category"
                            }
                        ],
                        "text": "Vital Signs"
                    }
                ],
                "code": {
                    "coding": [
                        {
                            "code": "3141-9",
                            "display": "weight",
                            "system": "http://loinc.org"
                        }
                    ],
                    "text": "weight"
                },
                "context": {
                    "reference": "Encounter/nhs-980"
                },
                "effectiveDateTime": "2012-08-22",
                "id": "nhs-1525-weight",
                "identifier": [
                    {
                        "system": "http://www.bmc.nl/zorgportal/identifiers/observations",
                        "use": "official",
                        "value": "nhs-1525-weight"
                    }
                ],
                "performer": [
                    {
                        "reference": "Practitioner/nhs-Practitioner-71081332"
                    }
                ],
                "resourceType": "Observation",
                "status": "unknown",
                "subject": {
                    "reference": "Patient/nhs-7777701"
                },
                "text": {
                    "div": "<div xmlns=\"http://www.w3.org/1999/xhtml\">2012-08-22: weight = 7.7 kg</div>",
                    "status": "generated"
                },
                "valueQuantity": {
                    "code": "kg",
                    "system": "http://unitsofmeasure.org",
                    "unit": "kg",
                    "value": 7.7
                },
                "meta": {
                    "tag": [
                        {
                            "system": "https://smarthealthit.org/tags",
                            "code": "nhs"
                        }
                    ]
                }
            },
            "fullUrl": "/Observation/nhs-1525-weight"
        },
        {
            "request": {
                "method": "PUT",
                "url": "Observation/nhs-1526-height"
            },
            "resource": {
                "category": [
                    {
                        "coding": [
                            {
                                "code": "vital-signs",
                                "display": "Vital Signs",
                                "system": "http://hl7.org/fhir/observation-category"
                            }
                        ],
                        "text": "Vital Signs"
                    }
                ],
                "code": {
                    "coding": [
                        {
                            "code": "8302-2",
                            "display": "height",
                            "system": "http://loinc.org"
                        }
                    ],
                    "text": "height"
                },
                "context": {
                    "reference": "Encounter/nhs-981"
                },
                "effectiveDateTime": "2012-09-06",
                "id": "nhs-1526-height",
                "identifier": [
                    {
                        "system": "http://www.bmc.nl/zorgportal/identifiers/observations",
                        "use": "official",
                        "value": "nhs-1526-height"
                    }
                ],
                "performer": [
                    {
                        "reference": "Practitioner/nhs-Practitioner-71081332"
                    }
                ],
                "resourceType": "Observation",
                "status": "unknown",
                "subject": {
                    "reference": "Patient/nhs-7777701"
                },
                "text": {
                    "div": "<div xmlns=\"http://www.w3.org/1999/xhtml\">2012-09-06: height = 70.4 cm</div>",
                    "status": "generated"
                },
                "valueQuantity": {
                    "code": "cm",
                    "system": "http://unitsofmeasure.org",
                    "unit": "cm",
                    "value": 70.4
                },
                "meta": {
                    "tag": [
                        {
                            "system": "https://smarthealthit.org/tags",
                            "code": "nhs"
                        }
                    ]
                }
            },
            "fullUrl": "/Observation/nhs-1526-height"
        },
        {
            "request": {
                "method": "PUT",
                "url": "Observation/nhs-1527-weight"
            },
            "resource": {
                "category": [
                    {
                        "coding": [
                            {
                                "code": "vital-signs",
                                "display": "Vital Signs",
                                "system": "http://hl7.org/fhir/observation-category"
                            }
                        ],
                        "text": "Vital Signs"
                    }
                ],
                "code": {
                    "coding": [
                        {
                            "code": "3141-9",
                            "display": "weight",
                            "system": "http://loinc.org"
                        }
                    ],
                    "text": "weight"
                },
                "context": {
                    "reference": "Encounter/nhs-981"
                },
                "effectiveDateTime": "2012-09-06",
                "id": "nhs-1527-weight",
                "identifier": [
                    {
                        "system": "http://www.bmc.nl/zorgportal/identifiers/observations",
                        "use": "official",
                        "value": "nhs-1527-weight"
                    }
                ],
                "performer": [
                    {
                        "reference": "Practitioner/nhs-Practitioner-71081332"
                    }
                ],
                "resourceType": "Observation",
                "status": "unknown",
                "subject": {
                    "reference": "Patient/nhs-7777701"
                },
                "text": {
                    "div": "<div xmlns=\"http://www.w3.org/1999/xhtml\">2012-09-06: weight = 7.7 kg</div>",
                    "status": "generated"
                },
                "valueQuantity": {
                    "code": "kg",
                    "system": "http://unitsofmeasure.org",
                    "unit": "kg",
                    "value": 7.7
                },
                "meta": {
                    "tag": [
                        {
                            "system": "https://smarthealthit.org/tags",
                            "code": "nhs"
                        }
                    ]
                }
            },
            "fullUrl": "/Observation/nhs-1527-weight"
        },
        {
            "request": {
                "method": "PUT",
                "url": "Observation/nhs-1528-height"
            },
            "resource": {
                "category": [
                    {
                        "coding": [
                            {
                                "code": "vital-signs",
                                "display": "Vital Signs",
                                "system": "http://hl7.org/fhir/observation-category"
                            }
                        ],
                        "text": "Vital Signs"
                    }
                ],
                "code": {
                    "coding": [
                        {
                            "code": "8302-2",
                            "display": "height",
                            "system": "http://loinc.org"
                        }
                    ],
                    "text": "height"
                },
                "context": {
                    "reference": "Encounter/nhs-982"
                },
                "effectiveDateTime": "2012-10-22",
                "id": "nhs-1528-height",
                "identifier": [
                    {
                        "system": "http://www.bmc.nl/zorgportal/identifiers/observations",
                        "use": "official",
                        "value": "nhs-1528-height"
                    }
                ],
                "performer": [
                    {
                        "reference": "Practitioner/nhs-Practitioner-71081332"
                    }
                ],
                "resourceType": "Observation",
                "status": "unknown",
                "subject": {
                    "reference": "Patient/nhs-7777701"
                },
                "text": {
                    "div": "<div xmlns=\"http://www.w3.org/1999/xhtml\">2012-10-22: height = 71.2 cm</div>",
                    "status": "generated"
                },
                "valueQuantity": {
                    "code": "cm",
                    "system": "http://unitsofmeasure.org",
                    "unit": "cm",
                    "value": 71.2
                },
                "meta": {
                    "tag": [
                        {
                            "system": "https://smarthealthit.org/tags",
                            "code": "nhs"
                        }
                    ]
                }
            },
            "fullUrl": "/Observation/nhs-1528-height"
        },
        {
            "request": {
                "method": "PUT",
                "url": "Observation/nhs-1529-weight"
            },
            "resource": {
                "category": [
                    {
                        "coding": [
                            {
                                "code": "vital-signs",
                                "display": "Vital Signs",
                                "system": "http://hl7.org/fhir/observation-category"
                            }
                        ],
                        "text": "Vital Signs"
                    }
                ],
                "code": {
                    "coding": [
                        {
                            "code": "3141-9",
                            "display": "weight",
                            "system": "http://loinc.org"
                        }
                    ],
                    "text": "weight"
                },
                "context": {
                    "reference": "Encounter/nhs-982"
                },
                "effectiveDateTime": "2012-10-22",
                "id": "nhs-1529-weight",
                "identifier": [
                    {
                        "system": "http://www.bmc.nl/zorgportal/identifiers/observations",
                        "use": "official",
                        "value": "nhs-1529-weight"
                    }
                ],
                "performer": [
                    {
                        "reference": "Practitioner/nhs-Practitioner-71081332"
                    }
                ],
                "resourceType": "Observation",
                "status": "unknown",
                "subject": {
                    "reference": "Patient/nhs-7777701"
                },
                "text": {
                    "div": "<div xmlns=\"http://www.w3.org/1999/xhtml\">2012-10-22: weight = 8.0 kg</div>",
                    "status": "generated"
                },
                "valueQuantity": {
                    "code": "kg",
                    "system": "http://unitsofmeasure.org",
                    "unit": "kg",
                    "value": 8
                },
                "meta": {
                    "tag": [
                        {
                            "system": "https://smarthealthit.org/tags",
                            "code": "nhs"
                        }
                    ]
                }
            },
            "fullUrl": "/Observation/nhs-1529-weight"
        },
        {
            "request": {
                "method": "PUT",
                "url": "Observation/nhs-1530-height"
            },
            "resource": {
                "category": [
                    {
                        "coding": [
                            {
                                "code": "vital-signs",
                                "display": "Vital Signs",
                                "system": "http://hl7.org/fhir/observation-category"
                            }
                        ],
                        "text": "Vital Signs"
                    }
                ],
                "code": {
                    "coding": [
                        {
                            "code": "8302-2",
                            "display": "height",
                            "system": "http://loinc.org"
                        }
                    ],
                    "text": "height"
                },
                "context": {
                    "reference": "Encounter/nhs-983"
                },
                "effectiveDateTime": "2013-01-27",
                "id": "nhs-1530-height",
                "identifier": [
                    {
                        "system": "http://www.bmc.nl/zorgportal/identifiers/observations",
                        "use": "official",
                        "value": "nhs-1530-height"
                    }
                ],
                "performer": [
                    {
                        "reference": "Practitioner/nhs-Practitioner-71081332"
                    }
                ],
                "resourceType": "Observation",
                "status": "unknown",
                "subject": {
                    "reference": "Patient/nhs-7777701"
                },
                "text": {
                    "div": "<div xmlns=\"http://www.w3.org/1999/xhtml\">2013-01-27: height = 73.8 cm</div>",
                    "status": "generated"
                },
                "valueQuantity": {
                    "code": "cm",
                    "system": "http://unitsofmeasure.org",
                    "unit": "cm",
                    "value": 73.8
                },
                "meta": {
                    "tag": [
                        {
                            "system": "https://smarthealthit.org/tags",
                            "code": "nhs"
                        }
                    ]
                }
            },
            "fullUrl": "/Observation/nhs-1530-height"
        },
        {
            "request": {
                "method": "PUT",
                "url": "Observation/nhs-1531-weight"
            },
            "resource": {
                "category": [
                    {
                        "coding": [
                            {
                                "code": "vital-signs",
                                "display": "Vital Signs",
                                "system": "http://hl7.org/fhir/observation-category"
                            }
                        ],
                        "text": "Vital Signs"
                    }
                ],
                "code": {
                    "coding": [
                        {
                            "code": "3141-9",
                            "display": "weight",
                            "system": "http://loinc.org"
                        }
                    ],
                    "text": "weight"
                },
                "context": {
                    "reference": "Encounter/nhs-983"
                },
                "effectiveDateTime": "2013-01-27",
                "id": "nhs-1531-weight",
                "identifier": [
                    {
                        "system": "http://www.bmc.nl/zorgportal/identifiers/observations",
                        "use": "official",
                        "value": "nhs-1531-weight"
                    }
                ],
                "performer": [
                    {
                        "reference": "Practitioner/nhs-Practitioner-71081332"
                    }
                ],
                "resourceType": "Observation",
                "status": "unknown",
                "subject": {
                    "reference": "Patient/nhs-7777701"
                },
                "text": {
                    "div": "<div xmlns=\"http://www.w3.org/1999/xhtml\">2013-01-27: weight = 8.6 kg</div>",
                    "status": "generated"
                },
                "valueQuantity": {
                    "code": "kg",
                    "system": "http://unitsofmeasure.org",
                    "unit": "kg",
                    "value": 8.6
                },
                "meta": {
                    "tag": [
                        {
                            "system": "https://smarthealthit.org/tags",
                            "code": "nhs"
                        }
                    ]
                }
            },
            "fullUrl": "/Observation/nhs-1531-weight"
        },
        {
            "request": {
                "method": "PUT",
                "url": "FamilyMemberHistory/nhs-FamilyMemberHistory-7"
            },
            "resource": {
                "extension": [
                    {
                        "url": "http://fhir-registry.smarthealthit.org/StructureDefinition/family-history#height",
                        "valueQuantity": {
                            "code": "cm",
                            "system": "http://unitsofmeasure.org",
                            "unit": "centimeters",
                            "value": 182
                        }
                    }
                ],
                "id": "nhs-FamilyMemberHistory-7",
                "patient": {
                    "reference": "Patient/nhs-7777701"
                },
                "relationship": {
                    "coding": [
                        {
                            "code": "FTH",
                            "display": "father",
                            "system": "http://hl7.org/fhir/v3/RoleCode"
                        }
                    ],
                    "text": "Father"
                },
                "resourceType": "FamilyMemberHistory",
                "status": "completed",
                "text": {
                    "div": "<div xmlns=\"http://www.w3.org/1999/xhtml\">Data on patient's Father</div>",
                    "status": "generated"
                },
                "meta": {
                    "tag": [
                        {
                            "system": "https://smarthealthit.org/tags",
                            "code": "nhs"
                        }
                    ]
                }
            },
            "fullUrl": "/FamilyMemberHistory/nhs-FamilyMemberHistory-7"
        },
        {
            "request": {
                "method": "PUT",
                "url": "FamilyMemberHistory/nhs-FamilyMemberHistory-8"
            },
            "resource": {
                "extension": [
                    {
                        "url": "http://fhir-registry.smarthealthit.org/StructureDefinition/family-history#height",
                        "valueQuantity": {
                            "code": "cm",
                            "system": "http://unitsofmeasure.org",
                            "unit": "centimeters",
                            "value": 165.5
                        }
                    }
                ],
                "id": "nhs-FamilyMemberHistory-8",
                "patient": {
                    "reference": "Patient/nhs-7777701"
                },
                "relationship": {
                    "coding": [
                        {
                            "code": "MTH",
                            "display": "mother",
                            "system": "http://hl7.org/fhir/v3/RoleCode"
                        }
                    ],
                    "text": "Mother"
                },
                "resourceType": "FamilyMemberHistory",
                "status": "completed",
                "text": {
                    "div": "<div xmlns=\"http://www.w3.org/1999/xhtml\">Data on patient's Mother</div>",
                    "status": "generated"
                },
                "meta": {
                    "tag": [
                        {
                            "system": "https://smarthealthit.org/tags",
                            "code": "nhs"
                        }
                    ]
                }
            },
            "fullUrl": "/FamilyMemberHistory/nhs-FamilyMemberHistory-8"
        }
    ],
    "resourceType": "Bundle",
    "type": "transaction"
}