{
    "entry": [
        {
            "request": {
                "method": "PUT",
                "url": "Observation/nhs-1391-lab"
            },
            "resource": {
                "category": [
                    {
                        "coding": [
                            {
                                "code": "laboratory",
                                "display": "Laboratory",
                                "system": "http://hl7.org/fhir/observation-category"
                            }
                        ],
                        "text": "Laboratory"
                    }
                ],
                "code": {
                    "coding": [
                        {
                            "code": "789-8",
                            "display": "RBC # Bld Auto",
                            "system": "http://loinc.org"
                        }
                    ],
                    "text": "RBC # Bld Auto"
                },
                "effectiveDateTime": "2006-07-25",
                "id": "nhs-1391-lab",
                "identifier": [
                    {
                        "system": "http://www.bmc.nl/zorgportal/identifiers/observations",
                        "use": "official",
                        "value": "nhs-1391-lab"
                    }
                ],
                "performer": [
                    {
                        "reference": "Practitioner/nhs-Practitioner-7880378"
                    }
                ],
                "referenceRange": [
                    {
                        "high": {
                            "code": "10*6/uL",
                            "system": "http://unitsofmeasure.org",
                            "unit": "10*6/uL",
                            "value": 6
                        },
                        "low": {
                            "code": "10*6/uL",
                            "system": "http://unitsofmeasure.org",
                            "unit": "10*6/uL",
                            "value": 4.6
                        },
                        "type": {
                            "coding": [
                                {
                                    "code": "normal",
                                    "display": "Normal Range",
                                    "system": "http://hl7.org/fhir/referencerange-meaning"
                                }
                            ],
                            "text": "Normal Range"
                        }
                    }
                ],
                "resourceType": "Observation",
                "status": "unknown",
                "subject": {
                    "reference": "Patient/nhs-1796238"
                },
                "text": {
                    "div": "<div xmlns=\"http://www.w3.org/1999/xhtml\">2006-07-25: RBC # Bld Auto = 4.59 10*6/uL</div>",
                    "status": "generated"
                },
                "valueQuantity": {
                    "code": "10*6/uL",
                    "system": "http://unitsofmeasure.org",
                    "unit": "10*6/uL",
                    "value": 4.59
                },
                "meta": {
                    "tag": [
                        {
                            "system": "https://smarthealthit.org/tags",
                            "code": "nhs"
                        }
                    ]
                }
            },
            "fullUrl": "/Observation/nhs-1391-lab"
        },
        {
            "request": {
                "method": "PUT",
                "url": "Observation/nhs-1392-lab"
            },
            "resource": {
                "category": [
                    {
                        "coding": [
                            {
                                "code": "laboratory",
                                "display": "Laboratory",
                                "system": "http://hl7.org/fhir/observation-category"
                            }
                        ],
                        "text": "Laboratory"
                    }
                ],
                "code": {
                    "coding": [
                        {
                            "code": "2823-3",
                            "display": "Potassium SerPl-sCnc",
                            "system": "http://loinc.org"
                        }
                    ],
                    "text": "Potassium SerPl-sCnc"
                },
                "effectiveDateTime": "2006-07-25",
                "id": "nhs-1392-lab",
                "identifier": [
                    {
                        "system": "http://www.bmc.nl/zorgportal/identifiers/observations",
                        "use": "official",
                        "value": "nhs-1392-lab"
                    }
                ],
                "performer": [
                    {
                        "reference": "Practitioner/nhs-Practitioner-7880378"
                    }
                ],
                "referenceRange": [
                    {
                        "high": {
                            "code": "mmol/L",
                            "system": "http://unitsofmeasure.org",
                            "unit": "mmol/L",
                            "value": 5.5
                        },
                        "low": {
                            "code": "mmol/L",
                            "system": "http://unitsofmeasure.org",
                            "unit": "mmol/L",
                            "value": 3.5
                        },
                        "type": {
                            "coding": [
                                {
                                    "code": "normal",
                                    "display": "Normal Range",
                                    "system": "http://hl7.org/fhir/referencerange-meaning"
                                }
                            ],
                            "text": "Normal Range"
                        }
                    }
                ],
                "resourceType": "Observation",
                "status": "unknown",
                "subject": {
                    "reference": "Patient/nhs-1796238"
                },
                "text": {
                    "div": "<div xmlns=\"http://www.w3.org/1999/xhtml\">2006-07-25: Potassium SerPl-sCnc = 3.8 mmol/L</div>",
                    "status": "generated"
                },
                "valueQuantity": {
                    "code": "mmol/L",
                    "system": "http://unitsofmeasure.org",
                    "unit": "mmol/L",
                    "value": 3.8
                },
                "meta": {
                    "tag": [
                        {
                            "system": "https://smarthealthit.org/tags",
                            "code": "nhs"
                        }
                    ]
                }
            },
            "fullUrl": "/Observation/nhs-1392-lab"
        },
        {
            "request": {
                "method": "PUT",
                "url": "Observation/nhs-1393-lab"
            },
            "resource": {
                "category": [
                    {
                        "coding": [
                            {
                                "code": "laboratory",
                                "display": "Laboratory",
                                "system": "http://hl7.org/fhir/observation-category"
                            }
                        ],
                        "text": "Laboratory"
                    }
                ],
                "code": {
                    "coding": [
                        {
                            "code": "2075-0",
                            "display": "Chloride SerPl-sCnc",
                            "system": "http://loinc.org"
                        }
                    ],
                    "text": "Chloride SerPl-sCnc"
                },
                "effectiveDateTime": "2006-07-25",
                "id": "nhs-1393-lab",
                "identifier": [
                    {
                        "system": "http://www.bmc.nl/zorgportal/identifiers/observations",
                        "use": "official",
                        "value": "nhs-1393-lab"
                    }
                ],
                "performer": [
                    {
                        "reference": "Practitioner/nhs-Practitioner-7880378"
                    }
                ],
                "referenceRange": [
                    {
                        "high": {
                            "code": "mmol/L",
                            "system": "http://unitsofmeasure.org",
                            "unit": "mmol/L",
                            "value": 105
                        },
                        "low": {
                            "code": "mmol/L",
                            "system": "http://unitsofmeasure.org",
                            "unit": "mmol/L",
                            "value": 95
                        },
                        "type": {
                            "coding": [
                                {
                                    "code": "normal",
                                    "display": "Normal Range",
                                    "system": "http://hl7.org/fhir/referencerange-meaning"
                                }
                            ],
                            "text": "Normal Range"
                        }
                    }
                ],
                "resourceType": "Observation",
                "status": "unknown",
                "subject": {
                    "reference": "Patient/nhs-1796238"
                },
                "text": {
                    "div": "<div xmlns=\"http://www.w3.org/1999/xhtml\">2006-07-25: Chloride SerPl-sCnc = 99 mmol/L</div>",
                    "status": "generated"
                },
                "valueQuantity": {
                    "code": "mmol/L",
                    "system": "http://unitsofmeasure.org",
                    "unit": "mmol/L",
                    "value": 99
                },
                "meta": {
                    "tag": [
                        {
                            "system": "https://smarthealthit.org/tags",
                            "code": "nhs"
                        }
                    ]
                }
            },
            "fullUrl": "/Observation/nhs-1393-lab"
        },
        {
            "request": {
                "method": "PUT",
                "url": "Observation/nhs-1394-lab"
            },
            "resource": {
                "category": [
                    {
                        "coding": [
                            {
                                "code": "laboratory",
                                "display": "Laboratory",
                                "system": "http://hl7.org/fhir/observation-category"
                            }
                        ],
                        "text": "Laboratory"
                    }
                ],
                "code": {
                    "coding": [
                        {
                            "code": "2028-9",
                            "display": "CO2 SerPl-sCnc",
                            "system": "http://loinc.org"
                        }
                    ],
                    "text": "CO2 SerPl-sCnc"
                },
                "effectiveDateTime": "2006-07-25",
                "id": "nhs-1394-lab",
                "identifier": [
                    {
                        "system": "http://www.bmc.nl/zorgportal/identifiers/observations",
                        "use": "official",
                        "value": "nhs-1394-lab"
                    }
                ],
                "performer": [
                    {
                        "reference": "Practitioner/nhs-Practitioner-7880378"
                    }
                ],
                "referenceRange": [
                    {
                        "high": {
                            "code": "mmol/L",
                            "system": "http://unitsofmeasure.org",
                            "unit": "mmol/L",
                            "value": 29
                        },
                        "low": {
                            "code": "mmol/L",
                            "system": "http://unitsofmeasure.org",
                            "unit": "mmol/L",
                            "value": 22
                        },
                        "type": {
                            "coding": [
                                {
                                    "code": "normal",
                                    "display": "Normal Range",
                                    "system": "http://hl7.org/fhir/referencerange-meaning"
                                }
                            ],
                            "text": "Normal Range"
                        }
                    }
                ],
                "resourceType": "Observation",
                "status": "unknown",
                "subject": {
                    "reference": "Patient/nhs-1796238"
                },
                "text": {
                    "div": "<div xmlns=\"http://www.w3.org/1999/xhtml\">2006-07-25: CO2 SerPl-sCnc = 28 mmol/L</div>",
                    "status": "generated"
                },
                "valueQuantity": {
                    "code": "mmol/L",
                    "system": "http://unitsofmeasure.org",
                    "unit": "mmol/L",
                    "value": 28
                },
                "meta": {
                    "tag": [
                        {
                            "system": "https://smarthealthit.org/tags",
                            "code": "nhs"
                        }
                    ]
                }
            },
            "fullUrl": "/Observation/nhs-1394-lab"
        },
        {
            "request": {
                "method": "PUT",
                "url": "Observation/nhs-1395-lab"
            },
            "resource": {
                "category": [
                    {
                        "coding": [
                            {
                                "code": "laboratory",
                                "display": "Laboratory",
                                "system": "http://hl7.org/fhir/observation-category"
                            }
                        ],
                        "text": "Laboratory"
                    }
                ],
                "code": {
                    "coding": [
                        {
                            "code": "2951-2",
                            "display": "Sodium SerPl-sCnc",
                            "system": "http://loinc.org"
                        }
                    ],
                    "text": "Sodium SerPl-sCnc"
                },
                "effectiveDateTime": "2006-07-25",
                "id": "nhs-1395-lab",
                "identifier": [
                    {
                        "system": "http://www.bmc.nl/zorgportal/identifiers/observations",
                        "use": "official",
                        "value": "nhs-1395-lab"
                    }
                ],
                "performer": [
                    {
                        "reference": "Practitioner/nhs-Practitioner-7880378"
                    }
                ],
                "referenceRange": [
                    {
                        "high": {
                            "code": "mmol/L",
                            "system": "http://unitsofmeasure.org",
                            "unit": "mmol/L",
                            "value": 145
                        },
                        "low": {
                            "code": "mmol/L",
                            "system": "http://unitsofmeasure.org",
                            "unit": "mmol/L",
                            "value": 135
                        },
                        "type": {
                            "coding": [
                                {
                                    "code": "normal",
                                    "display": "Normal Range",
                                    "system": "http://hl7.org/fhir/referencerange-meaning"
                                }
                            ],
                            "text": "Normal Range"
                        }
                    }
                ],
                "resourceType": "Observation",
                "status": "unknown",
                "subject": {
                    "reference": "Patient/nhs-1796238"
                },
                "text": {
                    "div": "<div xmlns=\"http://www.w3.org/1999/xhtml\">2006-07-25: Sodium SerPl-sCnc = 138 mmol/L</div>",
                    "status": "generated"
                },
                "valueQuantity": {
                    "code": "mmol/L",
                    "system": "http://unitsofmeasure.org",
                    "unit": "mmol/L",
                    "value": 138
                },
                "meta": {
                    "tag": [
                        {
                            "system": "https://smarthealthit.org/tags",
                            "code": "nhs"
                        }
                    ]
                }
            },
            "fullUrl": "/Observation/nhs-1395-lab"
        },
        {
            "request": {
                "method": "PUT",
                "url": "Observation/nhs-1396-lab"
            },
            "resource": {
                "category": [
                    {
                        "coding": [
                            {
                                "code": "laboratory",
                                "display": "Laboratory",
                                "system": "http://hl7.org/fhir/observation-category"
                            }
                        ],
                        "text": "Laboratory"
                    }
                ],
                "code": {
                    "coding": [
                        {
                            "code": "28542-9",
                            "display": "PMV Bld",
                            "system": "http://loinc.org"
                        }
                    ],
                    "text": "PMV Bld"
                },
                "effectiveDateTime": "2006-07-25",
                "id": "nhs-1396-lab",
                "identifier": [
                    {
                        "system": "http://www.bmc.nl/zorgportal/identifiers/observations",
                        "use": "official",
                        "value": "nhs-1396-lab"
                    }
                ],
                "performer": [
                    {
                        "reference": "Practitioner/nhs-Practitioner-7880378"
                    }
                ],
                "referenceRange": [
                    {
                        "high": {
                            "code": "fL",
                            "system": "http://unitsofmeasure.org",
                            "unit": "fL",
                            "value": 9.6
                        },
                        "low": {
                            "code": "fL",
                            "system": "http://unitsofmeasure.org",
                            "unit": "fL",
                            "value": 6.3
                        },
                        "type": {
                            "coding": [
                                {
                                    "code": "normal",
                                    "display": "Normal Range",
                                    "system": "http://hl7.org/fhir/referencerange-meaning"
                                }
                            ],
                            "text": "Normal Range"
                        }
                    }
                ],
                "resourceType": "Observation",
                "status": "unknown",
                "subject": {
                    "reference": "Patient/nhs-1796238"
                },
                "text": {
                    "div": "<div xmlns=\"http://www.w3.org/1999/xhtml\">2006-07-25: PMV Bld = 9 fL</div>",
                    "status": "generated"
                },
                "valueQuantity": {
                    "code": "fL",
                    "system": "http://unitsofmeasure.org",
                    "unit": "fL",
                    "value": 9
                },
                "meta": {
                    "tag": [
                        {
                            "system": "https://smarthealthit.org/tags",
                            "code": "nhs"
                        }
                    ]
                }
            },
            "fullUrl": "/Observation/nhs-1396-lab"
        },
        {
            "request": {
                "method": "PUT",
                "url": "Observation/nhs-1397-lab"
            },
            "resource": {
                "category": [
                    {
                        "coding": [
                            {
                                "code": "laboratory",
                                "display": "Laboratory",
                                "system": "http://hl7.org/fhir/observation-category"
                            }
                        ],
                        "text": "Laboratory"
                    }
                ],
                "code": {
                    "coding": [
                        {
                            "code": "30385-9",
                            "display": "RDW RBC-Rto",
                            "system": "http://loinc.org"
                        }
                    ],
                    "text": "RDW RBC-Rto"
                },
                "effectiveDateTime": "2006-07-25",
                "id": "nhs-1397-lab",
                "identifier": [
                    {
                        "system": "http://www.bmc.nl/zorgportal/identifiers/observations",
                        "use": "official",
                        "value": "nhs-1397-lab"
                    }
                ],
                "performer": [
                    {
                        "reference": "Practitioner/nhs-Practitioner-7880378"
                    }
                ],
                "referenceRange": [
                    {
                        "high": {
                            "code": "%",
                            "system": "http://unitsofmeasure.org",
                            "unit": "%",
                            "value": 14.5
                        },
                        "low": {
                            "code": "%",
                            "system": "http://unitsofmeasure.org",
                            "unit": "%",
                            "value": 11.5
                        },
                        "type": {
                            "coding": [
                                {
                                    "code": "normal",
                                    "display": "Normal Range",
                                    "system": "http://hl7.org/fhir/referencerange-meaning"
                                }
                            ],
                            "text": "Normal Range"
                        }
                    }
                ],
                "resourceType": "Observation",
                "status": "unknown",
                "subject": {
                    "reference": "Patient/nhs-1796238"
                },
                "text": {
                    "div": "<div xmlns=\"http://www.w3.org/1999/xhtml\">2006-07-25: RDW RBC-Rto = 13.6 %</div>",
                    "status": "generated"
                },
                "valueQuantity": {
                    "code": "%",
                    "system": "http://unitsofmeasure.org",
                    "unit": "%",
                    "value": 13.6
                },
                "meta": {
                    "tag": [
                        {
                            "system": "https://smarthealthit.org/tags",
                            "code": "nhs"
                        }
                    ]
                }
            },
            "fullUrl": "/Observation/nhs-1397-lab"
        },
        {
            "request": {
                "method": "PUT",
                "url": "Observation/nhs-1398-lab"
            },
            "resource": {
                "category": [
                    {
                        "coding": [
                            {
                                "code": "laboratory",
                                "display": "Laboratory",
                                "system": "http://hl7.org/fhir/observation-category"
                            }
                        ],
                        "text": "Laboratory"
                    }
                ],
                "code": {
                    "coding": [
                        {
                            "code": "2345-7",
                            "display": "Glucose SerPl-mCnc",
                            "system": "http://loinc.org"
                        }
                    ],
                    "text": "Glucose SerPl-mCnc"
                },
                "effectiveDateTime": "2006-07-25",
                "id": "nhs-1398-lab",
                "identifier": [
                    {
                        "system": "http://www.bmc.nl/zorgportal/identifiers/observations",
                        "use": "official",
                        "value": "nhs-1398-lab"
                    }
                ],
                "performer": [
                    {
                        "reference": "Practitioner/nhs-Practitioner-7880378"
                    }
                ],
                "referenceRange": [
                    {
                        "high": {
                            "code": "mg/dL",
                            "system": "http://unitsofmeasure.org",
                            "unit": "mg/dL",
                            "value": 109
                        },
                        "low": {
                            "code": "mg/dL",
                            "system": "http://unitsofmeasure.org",
                            "unit": "mg/dL",
                            "value": 70
                        },
                        "type": {
                            "coding": [
                                {
                                    "code": "normal",
                                    "display": "Normal Range",
                                    "system": "http://hl7.org/fhir/referencerange-meaning"
                                }
                            ],
                            "text": "Normal Range"
                        }
                    }
                ],
                "resourceType": "Observation",
                "status": "unknown",
                "subject": {
                    "reference": "Patient/nhs-1796238"
                },
                "text": {
                    "div": "<div xmlns=\"http://www.w3.org/1999/xhtml\">2006-07-25: Glucose SerPl-mCnc = 102 mg/dL</div>",
                    "status": "generated"
                },
                "valueQuantity": {
                    "code": "mg/dL",
                    "system": "http://unitsofmeasure.org",
                    "unit": "mg/dL",
                    "value": 102
                },
                "meta": {
                    "tag": [
                        {
                            "system": "https://smarthealthit.org/tags",
                            "code": "nhs"
                        }
                    ]
                }
            },
            "fullUrl": "/Observation/nhs-1398-lab"
        },
        {
            "request": {
                "method": "PUT",
                "url": "Observation/nhs-1399-lab"
            },
            "resource": {
                "category": [
                    {
                        "coding": [
                            {
                                "code": "laboratory",
                                "display": "Laboratory",
                                "system": "http://hl7.org/fhir/observation-category"
                            }
                        ],
                        "text": "Laboratory"
                    }
                ],
                "code": {
                    "coding": [
                        {
                            "code": "3094-0",
                            "display": "BUN SerPl-mCnc",
                            "system": "http://loinc.org"
                        }
                    ],
                    "text": "BUN SerPl-mCnc"
                },
                "effectiveDateTime": "2006-07-25",
                "id": "nhs-1399-lab",
                "identifier": [
                    {
                        "system": "http://www.bmc.nl/zorgportal/identifiers/observations",
                        "use": "official",
                        "value": "nhs-1399-lab"
                    }
                ],
                "performer": [
                    {
                        "reference": "Practitioner/nhs-Practitioner-7880378"
                    }
                ],
                "referenceRange": [
                    {
                        "high": {
                            "code": "mg/dL",
                            "system": "http://unitsofmeasure.org",
                            "unit": "mg/dL",
                            "value": 20
                        },
                        "low": {
                            "code": "mg/dL",
                            "system": "http://unitsofmeasure.org",
                            "unit": "mg/dL",
                            "value": 5
                        },
                        "type": {
                            "coding": [
                                {
                                    "code": "normal",
                                    "display": "Normal Range",
                                    "system": "http://hl7.org/fhir/referencerange-meaning"
                                }
                            ],
                            "text": "Normal Range"
                        }
                    }
                ],
                "resourceType": "Observation",
                "status": "unknown",
                "subject": {
                    "reference": "Patient/nhs-1796238"
                },
                "text": {
                    "div": "<div xmlns=\"http://www.w3.org/1999/xhtml\">2006-07-25: BUN SerPl-mCnc = 15 mg/dL</div>",
                    "status": "generated"
                },
                "valueQuantity": {
                    "code": "mg/dL",
                    "system": "http://unitsofmeasure.org",
                    "unit": "mg/dL",
                    "value": 15
                },
                "meta": {
                    "tag": [
                        {
                            "system": "https://smarthealthit.org/tags",
                            "code": "nhs"
                        }
                    ]
                }
            },
            "fullUrl": "/Observation/nhs-1399-lab"
        },
        {
            "request": {
                "method": "PUT",
                "url": "Observation/nhs-1400-lab"
            },
            "resource": {
                "category": [
                    {
                        "coding": [
                            {
                                "code": "laboratory",
                                "display": "Laboratory",
                                "system": "http://hl7.org/fhir/observation-category"
                            }
                        ],
                        "text": "Laboratory"
                    }
                ],
                "code": {
                    "coding": [
                        {
                            "code": "718-7",
                            "display": "Hgb Bld-mCnc",
                            "system": "http://loinc.org"
                        }
                    ],
                    "text": "Hgb Bld-mCnc"
                },
                "effectiveDateTime": "2006-07-25",
                "id": "nhs-1400-lab",
                "identifier": [
                    {
                        "system": "http://www.bmc.nl/zorgportal/identifiers/observations",
                        "use": "official",
                        "value": "nhs-1400-lab"
                    }
                ],
                "performer": [
                    {
                        "reference": "Practitioner/nhs-Practitioner-7880378"
                    }
                ],
                "referenceRange": [
                    {
                        "high": {
                            "code": "g/dL",
                            "system": "http://unitsofmeasure.org",
                            "unit": "g/dL",
                            "value": 18
                        },
                        "low": {
                            "code": "g/dL",
                            "system": "http://unitsofmeasure.org",
                            "unit": "g/dL",
                            "value": 14
                        },
                        "type": {
                            "coding": [
                                {
                                    "code": "normal",
                                    "display": "Normal Range",
                                    "system": "http://hl7.org/fhir/referencerange-meaning"
                                }
                            ],
                            "text": "Normal Range"
                        }
                    }
                ],
                "resourceType": "Observation",
                "status": "unknown",
                "subject": {
                    "reference": "Patient/nhs-1796238"
                },
                "text": {
                    "div": "<div xmlns=\"http://www.w3.org/1999/xhtml\">2006-07-25: Hgb Bld-mCnc = 12.5 g/dL</div>",
                    "status": "generated"
                },
                "valueQuantity": {
                    "code": "g/dL",
                    "system": "http://unitsofmeasure.org",
                    "unit": "g/dL",
                    "value": 12.5
                },
                "meta": {
                    "tag": [
                        {
                            "system": "https://smarthealthit.org/tags",
                            "code": "nhs"
                        }
                    ]
                }
            },
            "fullUrl": "/Observation/nhs-1400-lab"
        },
        {
            "request": {
                "method": "PUT",
                "url": "Observation/nhs-1401-lab"
            },
            "resource": {
                "category": [
                    {
                        "coding": [
                            {
                                "code": "laboratory",
                                "display": "Laboratory",
                                "system": "http://hl7.org/fhir/observation-category"
                            }
                        ],
                        "text": "Laboratory"
                    }
                ],
                "code": {
                    "coding": [
                        {
                            "code": "2339-0",
                            "display": "Glucose Bld-mCnc",
                            "system": "http://loinc.org"
                        }
                    ],
                    "text": "Glucose Bld-mCnc"
                },
                "effectiveDateTime": "2006-07-25",
                "id": "nhs-1401-lab",
                "identifier": [
                    {
                        "system": "http://www.bmc.nl/zorgportal/identifiers/observations",
                        "use": "official",
                        "value": "nhs-1401-lab"
                    }
                ],
                "performer": [
                    {
                        "reference": "Practitioner/nhs-Practitioner-7880378"
                    }
                ],
                "referenceRange": [
                    {
                        "high": {
                            "code": "mg/dL",
                            "system": "http://unitsofmeasure.org",
                            "unit": "mg/dL",
                            "value": 109
                        },
                        "low": {
                            "code": "mg/dL",
                            "system": "http://unitsofmeasure.org",
                            "unit": "mg/dL",
                            "value": 70
                        },
                        "type": {
                            "coding": [
                                {
                                    "code": "normal",
                                    "display": "Normal Range",
                                    "system": "http://hl7.org/fhir/referencerange-meaning"
                                }
                            ],
                            "text": "Normal Range"
                        }
                    }
                ],
                "resourceType": "Observation",
                "status": "unknown",
                "subject": {
                    "reference": "Patient/nhs-1796238"
                },
                "text": {
                    "div": "<div xmlns=\"http://www.w3.org/1999/xhtml\">2006-07-25: Glucose Bld-mCnc = 50 mg/dL</div>",
                    "status": "generated"
                },
                "valueQuantity": {
                    "code": "mg/dL",
                    "system": "http://unitsofmeasure.org",
                    "unit": "mg/dL",
                    "value": 50
                },
                "meta": {
                    "tag": [
                        {
                            "system": "https://smarthealthit.org/tags",
                            "code": "nhs"
                        }
                    ]
                }
            },
            "fullUrl": "/Observation/nhs-1401-lab"
        },
        {
            "request": {
                "method": "PUT",
                "url": "Observation/nhs-1402-lab"
            },
            "resource": {
                "category": [
                    {
                        "coding": [
                            {
                                "code": "laboratory",
                                "display": "Laboratory",
                                "system": "http://hl7.org/fhir/observation-category"
                            }
                        ],
                        "text": "Laboratory"
                    }
                ],
                "code": {
                    "coding": [
                        {
                            "code": "2339-0",
                            "display": "Glucose Bld-mCnc",
                            "system": "http://loinc.org"
                        }
                    ],
                    "text": "Glucose Bld-mCnc"
                },
                "effectiveDateTime": "2006-07-25",
                "id": "nhs-1402-lab",
                "identifier": [
                    {
                        "system": "http://www.bmc.nl/zorgportal/identifiers/observations",
                        "use": "official",
                        "value": "nhs-1402-lab"
                    }
                ],
                "performer": [
                    {
                        "reference": "Practitioner/nhs-Practitioner-7880378"
                    }
                ],
                "referenceRange": [
                    {
                        "high": {
                            "code": "mg/dL",
                            "system": "http://unitsofmeasure.org",
                            "unit": "mg/dL",
                            "value": 109
                        },
                        "low": {
                            "code": "mg/dL",
                            "system": "http://unitsofmeasure.org",
                            "unit": "mg/dL",
                            "value": 70
                        },
                        "type": {
                            "coding": [
                                {
                                    "code": "normal",
                                    "display": "Normal Range",
                                    "system": "http://hl7.org/fhir/referencerange-meaning"
                                }
                            ],
                            "text": "Normal Range"
                        }
                    }
                ],
                "resourceType": "Observation",
                "status": "unknown",
                "subject": {
                    "reference": "Patient/nhs-1796238"
                },
                "text": {
                    "div": "<div xmlns=\"http://www.w3.org/1999/xhtml\">2006-07-25: Glucose Bld-mCnc = 167 mg/dL</div>",
                    "status": "generated"
                },
                "valueQuantity": {
                    "code": "mg/dL",
                    "system": "http://unitsofmeasure.org",
                    "unit": "mg/dL",
                    "value": 167
                },
                "meta": {
                    "tag": [
                        {
                            "system": "https://smarthealthit.org/tags",
                            "code": "nhs"
                        }
                    ]
                }
            },
            "fullUrl": "/Observation/nhs-1402-lab"
        },
        {
            "request": {
                "method": "PUT",
                "url": "Observation/nhs-1403-lab"
            },
            "resource": {
                "category": [
                    {
                        "coding": [
                            {
                                "code": "laboratory",
                                "display": "Laboratory",
                                "system": "http://hl7.org/fhir/observation-category"
                            }
                        ],
                        "text": "Laboratory"
                    }
                ],
                "code": {
                    "coding": [
                        {
                            "code": "2339-0",
                            "display": "Glucose Bld-mCnc",
                            "system": "http://loinc.org"
                        }
                    ],
                    "text": "Glucose Bld-mCnc"
                },
                "effectiveDateTime": "2006-07-25",
                "id": "nhs-1403-lab",
                "identifier": [
                    {
                        "system": "http://www.bmc.nl/zorgportal/identifiers/observations",
                        "use": "official",
                        "value": "nhs-1403-lab"
                    }
                ],
                "performer": [
                    {
                        "reference": "Practitioner/nhs-Practitioner-7880378"
                    }
                ],
                "referenceRange": [
                    {
                        "high": {
                            "code": "mg/dL",
                            "system": "http://unitsofmeasure.org",
                            "unit": "mg/dL",
                            "value": 109
                        },
                        "low": {
                            "code": "mg/dL",
                            "system": "http://unitsofmeasure.org",
                            "unit": "mg/dL",
                            "value": 70
                        },
                        "type": {
                            "coding": [
                                {
                                    "code": "normal",
                                    "display": "Normal Range",
                                    "system": "http://hl7.org/fhir/referencerange-meaning"
                                }
                            ],
                            "text": "Normal Range"
                        }
                    }
                ],
                "resourceType": "Observation",
                "status": "unknown",
                "subject": {
                    "reference": "Patient/nhs-1796238"
                },
                "text": {
                    "div": "<div xmlns=\"http://www.w3.org/1999/xhtml\">2006-07-25: Glucose Bld-mCnc = 162 mg/dL</div>",
                    "status": "generated"
                },
                "valueQuantity": {
                    "code": "mg/dL",
                    "system": "http://unitsofmeasure.org",
                    "unit": "mg/dL",
                    "value": 162
                },
                "meta": {
                    "tag": [
                        {
                            "system": "https://smarthealthit.org/tags",
                            "code": "nhs"
                        }
                    ]
                }
            },
            "fullUrl": "/Observation/nhs-1403-lab"
        },
        {
            "request": {
                "method": "PUT",
                "url": "Observation/nhs-1404-lab"
            },
            "resource": {
                "category": [
                    {
                        "coding": [
                            {
                                "code": "laboratory",
                                "display": "Laboratory",
                                "system": "http://hl7.org/fhir/observation-category"
                            }
                        ],
                        "text": "Laboratory"
                    }
                ],
                "code": {
                    "coding": [
                        {
                            "code": "2339-0",
                            "display": "Glucose Bld-mCnc",
                            "system": "http://loinc.org"
                        }
                    ],
                    "text": "Glucose Bld-mCnc"
                },
                "effectiveDateTime": "2006-07-25",
                "id": "nhs-1404-lab",
                "identifier": [
                    {
                        "system": "http://www.bmc.nl/zorgportal/identifiers/observations",
                        "use": "official",
                        "value": "nhs-1404-lab"
                    }
                ],
                "performer": [
                    {
                        "reference": "Practitioner/nhs-Practitioner-7880378"
                    }
                ],
                "referenceRange": [
                    {
                        "high": {
                            "code": "mg/dL",
                            "system": "http://unitsofmeasure.org",
                            "unit": "mg/dL",
                            "value": 109
                        },
                        "low": {
                            "code": "mg/dL",
                            "system": "http://unitsofmeasure.org",
                            "unit": "mg/dL",
                            "value": 70
                        },
                        "type": {
                            "coding": [
                                {
                                    "code": "normal",
                                    "display": "Normal Range",
                                    "system": "http://hl7.org/fhir/referencerange-meaning"
                                }
                            ],
                            "text": "Normal Range"
                        }
                    }
                ],
                "resourceType": "Observation",
                "status": "unknown",
                "subject": {
                    "reference": "Patient/nhs-1796238"
                },
                "text": {
                    "div": "<div xmlns=\"http://www.w3.org/1999/xhtml\">2006-07-25: Glucose Bld-mCnc = 113 mg/dL</div>",
                    "status": "generated"
                },
                "valueQuantity": {
                    "code": "mg/dL",
                    "system": "http://unitsofmeasure.org",
                    "unit": "mg/dL",
                    "value": 113
                },
                "meta": {
                    "tag": [
                        {
                            "system": "https://smarthealthit.org/tags",
                            "code": "nhs"
                        }
                    ]
                }
            },
            "fullUrl": "/Observation/nhs-1404-lab"
        },
        {
            "request": {
                "method": "PUT",
                "url": "Observation/nhs-1405-lab"
            },
            "resource": {
                "category": [
                    {
                        "coding": [
                            {
                                "code": "laboratory",
                                "display": "Laboratory",
                                "system": "http://hl7.org/fhir/observation-category"
                            }
                        ],
                        "text": "Laboratory"
                    }
                ],
                "code": {
                    "coding": [
                        {
                            "code": "2339-0",
                            "display": "Glucose Bld-mCnc",
                            "system": "http://loinc.org"
                        }
                    ],
                    "text": "Glucose Bld-mCnc"
                },
                "effectiveDateTime": "2006-07-25",
                "id": "nhs-1405-lab",
                "identifier": [
                    {
                        "system": "http://www.bmc.nl/zorgportal/identifiers/observations",
                        "use": "official",
                        "value": "nhs-1405-lab"
                    }
                ],
                "performer": [
                    {
                        "reference": "Practitioner/nhs-Practitioner-7880378"
                    }
                ],
                "referenceRange": [
                    {
                        "high": {
                            "code": "mg/dL",
                            "system": "http://unitsofmeasure.org",
                            "unit": "mg/dL",
                            "value": 109
                        },
                        "low": {
                            "code": "mg/dL",
                            "system": "http://unitsofmeasure.org",
                            "unit": "mg/dL",
                            "value": 70
                        },
                        "type": {
                            "coding": [
                                {
                                    "code": "normal",
                                    "display": "Normal Range",
                                    "system": "http://hl7.org/fhir/referencerange-meaning"
                                }
                            ],
                            "text": "Normal Range"
                        }
                    }
                ],
                "resourceType": "Observation",
                "status": "unknown",
                "subject": {
                    "reference": "Patient/nhs-1796238"
                },
                "text": {
                    "div": "<div xmlns=\"http://www.w3.org/1999/xhtml\">2006-07-25: Glucose Bld-mCnc = 112 mg/dL</div>",
                    "status": "generated"
                },
                "valueQuantity": {
                    "code": "mg/dL",
                    "system": "http://unitsofmeasure.org",
                    "unit": "mg/dL",
                    "value": 112
                },
                "meta": {
                    "tag": [
                        {
                            "system": "https://smarthealthit.org/tags",
                            "code": "nhs"
                        }
                    ]
                }
            },
            "fullUrl": "/Observation/nhs-1405-lab"
        },
        {
            "request": {
                "method": "PUT",
                "url": "Observation/nhs-1406-lab"
            },
            "resource": {
                "category": [
                    {
                        "coding": [
                            {
                                "code": "laboratory",
                                "display": "Laboratory",
                                "system": "http://hl7.org/fhir/observation-category"
                            }
                        ],
                        "text": "Laboratory"
                    }
                ],
                "code": {
                    "coding": [
                        {
                            "code": "10466-1",
                            "display": "Anion Gap3 SerPl-sCnc",
                            "system": "http://loinc.org"
                        }
                    ],
                    "text": "Anion Gap3 SerPl-sCnc"
                },
                "effectiveDateTime": "2006-07-25",
                "id": "nhs-1406-lab",
                "identifier": [
                    {
                        "system": "http://www.bmc.nl/zorgportal/identifiers/observations",
                        "use": "official",
                        "value": "nhs-1406-lab"
                    }
                ],
                "performer": [
                    {
                        "reference": "Practitioner/nhs-Practitioner-7880378"
                    }
                ],
                "referenceRange": [
                    {
                        "high": {
                            "code": "mmol/L",
                            "system": "http://unitsofmeasure.org",
                            "unit": "mmol/L",
                            "value": 0
                        },
                        "low": {
                            "code": "mmol/L",
                            "system": "http://unitsofmeasure.org",
                            "unit": "mmol/L",
                            "value": 0
                        },
                        "type": {
                            "coding": [
                                {
                                    "code": "normal",
                                    "display": "Normal Range",
                                    "system": "http://hl7.org/fhir/referencerange-meaning"
                                }
                            ],
                            "text": "Normal Range"
                        }
                    }
                ],
                "resourceType": "Observation",
                "status": "unknown",
                "subject": {
                    "reference": "Patient/nhs-1796238"
                },
                "text": {
                    "div": "<div xmlns=\"http://www.w3.org/1999/xhtml\">2006-07-25: Anion Gap3 SerPl-sCnc = 11 mmol/L</div>",
                    "status": "generated"
                },
                "valueQuantity": {
                    "code": "mmol/L",
                    "system": "http://unitsofmeasure.org",
                    "unit": "mmol/L",
                    "value": 11
                },
                "meta": {
                    "tag": [
                        {
                            "system": "https://smarthealthit.org/tags",
                            "code": "nhs"
                        }
                    ]
                }
            },
            "fullUrl": "/Observation/nhs-1406-lab"
        },
        {
            "request": {
                "method": "PUT",
                "url": "Observation/nhs-1407-lab"
            },
            "resource": {
                "category": [
                    {
                        "coding": [
                            {
                                "code": "laboratory",
                                "display": "Laboratory",
                                "system": "http://hl7.org/fhir/observation-category"
                            }
                        ],
                        "text": "Laboratory"
                    }
                ],
                "code": {
                    "coding": [
                        {
                            "code": "30428-7",
                            "display": "MCV RBC",
                            "system": "http://loinc.org"
                        }
                    ],
                    "text": "MCV RBC"
                },
                "effectiveDateTime": "2006-07-26",
                "id": "nhs-1407-lab",
                "identifier": [
                    {
                        "system": "http://www.bmc.nl/zorgportal/identifiers/observations",
                        "use": "official",
                        "value": "nhs-1407-lab"
                    }
                ],
                "performer": [
                    {
                        "reference": "Practitioner/nhs-Practitioner-7880378"
                    }
                ],
                "referenceRange": [
                    {
                        "high": {
                            "code": "fL",
                            "system": "http://unitsofmeasure.org",
                            "unit": "fL",
                            "value": 94
                        },
                        "low": {
                            "code": "fL",
                            "system": "http://unitsofmeasure.org",
                            "unit": "fL",
                            "value": 80
                        },
                        "type": {
                            "coding": [
                                {
                                    "code": "normal",
                                    "display": "Normal Range",
                                    "system": "http://hl7.org/fhir/referencerange-meaning"
                                }
                            ],
                            "text": "Normal Range"
                        }
                    }
                ],
                "resourceType": "Observation",
                "status": "unknown",
                "subject": {
                    "reference": "Patient/nhs-1796238"
                },
                "text": {
                    "div": "<div xmlns=\"http://www.w3.org/1999/xhtml\">2006-07-26: MCV RBC = 80 fL</div>",
                    "status": "generated"
                },
                "valueQuantity": {
                    "code": "fL",
                    "system": "http://unitsofmeasure.org",
                    "unit": "fL",
                    "value": 80
                },
                "meta": {
                    "tag": [
                        {
                            "system": "https://smarthealthit.org/tags",
                            "code": "nhs"
                        }
                    ]
                }
            },
            "fullUrl": "/Observation/nhs-1407-lab"
        },
        {
            "request": {
                "method": "PUT",
                "url": "Observation/nhs-1408-lab"
            },
            "resource": {
                "category": [
                    {
                        "coding": [
                            {
                                "code": "laboratory",
                                "display": "Laboratory",
                                "system": "http://hl7.org/fhir/observation-category"
                            }
                        ],
                        "text": "Laboratory"
                    }
                ],
                "code": {
                    "coding": [
                        {
                            "code": "2160-0",
                            "display": "Creat SerPl-mCnc",
                            "system": "http://loinc.org"
                        }
                    ],
                    "text": "Creat SerPl-mCnc"
                },
                "effectiveDateTime": "2006-07-26",
                "id": "nhs-1408-lab",
                "identifier": [
                    {
                        "system": "http://www.bmc.nl/zorgportal/identifiers/observations",
                        "use": "official",
                        "value": "nhs-1408-lab"
                    }
                ],
                "performer": [
                    {
                        "reference": "Practitioner/nhs-Practitioner-7880378"
                    }
                ],
                "referenceRange": [
                    {
                        "high": {
                            "code": "mg/dL",
                            "system": "http://unitsofmeasure.org",
                            "unit": "mg/dL",
                            "value": 1.4
                        },
                        "low": {
                            "code": "mg/dL",
                            "system": "http://unitsofmeasure.org",
                            "unit": "mg/dL",
                            "value": 0.8
                        },
                        "type": {
                            "coding": [
                                {
                                    "code": "normal",
                                    "display": "Normal Range",
                                    "system": "http://hl7.org/fhir/referencerange-meaning"
                                }
                            ],
                            "text": "Normal Range"
                        }
                    }
                ],
                "resourceType": "Observation",
                "status": "unknown",
                "subject": {
                    "reference": "Patient/nhs-1796238"
                },
                "text": {
                    "div": "<div xmlns=\"http://www.w3.org/1999/xhtml\">2006-07-26: Creat SerPl-mCnc = 0.9 mg/dL</div>",
                    "status": "generated"
                },
                "valueQuantity": {
                    "code": "mg/dL",
                    "system": "http://unitsofmeasure.org",
                    "unit": "mg/dL",
                    "value": 0.9
                },
                "meta": {
                    "tag": [
                        {
                            "system": "https://smarthealthit.org/tags",
                            "code": "nhs"
                        }
                    ]
                }
            },
            "fullUrl": "/Observation/nhs-1408-lab"
        },
        {
            "request": {
                "method": "PUT",
                "url": "Observation/nhs-1409-lab"
            },
            "resource": {
                "category": [
                    {
                        "coding": [
                            {
                                "code": "laboratory",
                                "display": "Laboratory",
                                "system": "http://hl7.org/fhir/observation-category"
                            }
                        ],
                        "text": "Laboratory"
                    }
                ],
                "code": {
                    "coding": [
                        {
                            "code": "785-6",
                            "display": "MCH RBC Qn Auto",
                            "system": "http://loinc.org"
                        }
                    ],
                    "text": "MCH RBC Qn Auto"
                },
                "effectiveDateTime": "2006-07-26",
                "id": "nhs-1409-lab",
                "identifier": [
                    {
                        "system": "http://www.bmc.nl/zorgportal/identifiers/observations",
                        "use": "official",
                        "value": "nhs-1409-lab"
                    }
                ],
                "performer": [
                    {
                        "reference": "Practitioner/nhs-Practitioner-7880378"
                    }
                ],
                "referenceRange": [
                    {
                        "high": {
                            "code": "pg",
                            "system": "http://unitsofmeasure.org",
                            "unit": "pg",
                            "value": 32
                        },
                        "low": {
                            "code": "pg",
                            "system": "http://unitsofmeasure.org",
                            "unit": "pg",
                            "value": 26
                        },
                        "type": {
                            "coding": [
                                {
                                    "code": "normal",
                                    "display": "Normal Range",
                                    "system": "http://hl7.org/fhir/referencerange-meaning"
                                }
                            ],
                            "text": "Normal Range"
                        }
                    }
                ],
                "resourceType": "Observation",
                "status": "unknown",
                "subject": {
                    "reference": "Patient/nhs-1796238"
                },
                "text": {
                    "div": "<div xmlns=\"http://www.w3.org/1999/xhtml\">2006-07-26: MCH RBC Qn Auto = 27.4 pg</div>",
                    "status": "generated"
                },
                "valueQuantity": {
                    "code": "pg",
                    "system": "http://unitsofmeasure.org",
                    "unit": "pg",
                    "value": 27.4
                },
                "meta": {
                    "tag": [
                        {
                            "system": "https://smarthealthit.org/tags",
                            "code": "nhs"
                        }
                    ]
                }
            },
            "fullUrl": "/Observation/nhs-1409-lab"
        },
        {
            "request": {
                "method": "PUT",
                "url": "Observation/nhs-1410-lab"
            },
            "resource": {
                "category": [
                    {
                        "coding": [
                            {
                                "code": "laboratory",
                                "display": "Laboratory",
                                "system": "http://hl7.org/fhir/observation-category"
                            }
                        ],
                        "text": "Laboratory"
                    }
                ],
                "code": {
                    "coding": [
                        {
                            "code": "786-4",
                            "display": "MCHC RBC Auto-mCnc",
                            "system": "http://loinc.org"
                        }
                    ],
                    "text": "MCHC RBC Auto-mCnc"
                },
                "effectiveDateTime": "2006-07-26",
                "id": "nhs-1410-lab",
                "identifier": [
                    {
                        "system": "http://www.bmc.nl/zorgportal/identifiers/observations",
                        "use": "official",
                        "value": "nhs-1410-lab"
                    }
                ],
                "performer": [
                    {
                        "reference": "Practitioner/nhs-Practitioner-7880378"
                    }
                ],
                "referenceRange": [
                    {
                        "high": {
                            "code": "g/dL",
                            "system": "http://unitsofmeasure.org",
                            "unit": "g/dL",
                            "value": 36
                        },
                        "low": {
                            "code": "g/dL",
                            "system": "http://unitsofmeasure.org",
                            "unit": "g/dL",
                            "value": 32
                        },
                        "type": {
                            "coding": [
                                {
                                    "code": "normal",
                                    "display": "Normal Range",
                                    "system": "http://hl7.org/fhir/referencerange-meaning"
                                }
                            ],
                            "text": "Normal Range"
                        }
                    }
                ],
                "resourceType": "Observation",
                "status": "unknown",
                "subject": {
                    "reference": "Patient/nhs-1796238"
                },
                "text": {
                    "div": "<div xmlns=\"http://www.w3.org/1999/xhtml\">2006-07-26: MCHC RBC Auto-mCnc = 34.4 g/dL</div>",
                    "status": "generated"
                },
                "valueQuantity": {
                    "code": "g/dL",
                    "system": "http://unitsofmeasure.org",
                    "unit": "g/dL",
                    "value": 34.4
                },
                "meta": {
                    "tag": [
                        {
                            "system": "https://smarthealthit.org/tags",
                            "code": "nhs"
                        }
                    ]
                }
            },
            "fullUrl": "/Observation/nhs-1410-lab"
        },
        {
            "request": {
                "method": "PUT",
                "url": "Observation/nhs-1411-lab"
            },
            "resource": {
                "category": [
                    {
                        "coding": [
                            {
                                "code": "laboratory",
                                "display": "Laboratory",
                                "system": "http://hl7.org/fhir/observation-category"
                            }
                        ],
                        "text": "Laboratory"
                    }
                ],
                "code": {
                    "coding": [
                        {
                            "code": "17861-6",
                            "display": "Calcium SerPl-mCnc",
                            "system": "http://loinc.org"
                        }
                    ],
                    "text": "Calcium SerPl-mCnc"
                },
                "effectiveDateTime": "2006-07-26",
                "id": "nhs-1411-lab",
                "identifier": [
                    {
                        "system": "http://www.bmc.nl/zorgportal/identifiers/observations",
                        "use": "official",
                        "value": "nhs-1411-lab"
                    }
                ],
                "performer": [
                    {
                        "reference": "Practitioner/nhs-Practitioner-7880378"
                    }
                ],
                "referenceRange": [
                    {
                        "high": {
                            "code": "mg/dL",
                            "system": "http://unitsofmeasure.org",
                            "unit": "mg/dL",
                            "value": 10.5
                        },
                        "low": {
                            "code": "mg/dL",
                            "system": "http://unitsofmeasure.org",
                            "unit": "mg/dL",
                            "value": 8.5
                        },
                        "type": {
                            "coding": [
                                {
                                    "code": "normal",
                                    "display": "Normal Range",
                                    "system": "http://hl7.org/fhir/referencerange-meaning"
                                }
                            ],
                            "text": "Normal Range"
                        }
                    }
                ],
                "resourceType": "Observation",
                "status": "unknown",
                "subject": {
                    "reference": "Patient/nhs-1796238"
                },
                "text": {
                    "div": "<div xmlns=\"http://www.w3.org/1999/xhtml\">2006-07-26: Calcium SerPl-mCnc = 8.8 mg/dL</div>",
                    "status": "generated"
                },
                "valueQuantity": {
                    "code": "mg/dL",
                    "system": "http://unitsofmeasure.org",
                    "unit": "mg/dL",
                    "value": 8.8
                },
                "meta": {
                    "tag": [
                        {
                            "system": "https://smarthealthit.org/tags",
                            "code": "nhs"
                        }
                    ]
                }
            },
            "fullUrl": "/Observation/nhs-1411-lab"
        },
        {
            "request": {
                "method": "PUT",
                "url": "Observation/nhs-1412-lab"
            },
            "resource": {
                "category": [
                    {
                        "coding": [
                            {
                                "code": "laboratory",
                                "display": "Laboratory",
                                "system": "http://hl7.org/fhir/observation-category"
                            }
                        ],
                        "text": "Laboratory"
                    }
                ],
                "code": {
                    "coding": [
                        {
                            "code": "5767-9",
                            "display": "Appearance Ur",
                            "system": "http://loinc.org"
                        }
                    ],
                    "text": "Appearance Ur"
                },
                "effectiveDateTime": "2006-07-26",
                "id": "nhs-1412-lab",
                "identifier": [
                    {
                        "system": "http://www.bmc.nl/zorgportal/identifiers/observations",
                        "use": "official",
                        "value": "nhs-1412-lab"
                    }
                ],
                "performer": [
                    {
                        "reference": "Practitioner/nhs-Practitioner-7880378"
                    }
                ],
                "resourceType": "Observation",
                "status": "unknown",
                "subject": {
                    "reference": "Patient/nhs-1796238"
                },
                "text": {
                    "div": "<div xmlns=\"http://www.w3.org/1999/xhtml\">2006-07-26: Appearance Ur = Slightly Cloudy </div>",
                    "status": "generated"
                },
                "valueString": "Slightly Cloudy",
                "meta": {
                    "tag": [
                        {
                            "system": "https://smarthealthit.org/tags",
                            "code": "nhs"
                        }
                    ]
                }
            },
            "fullUrl": "/Observation/nhs-1412-lab"
        },
        {
            "request": {
                "method": "PUT",
                "url": "Observation/nhs-1413-lab"
            },
            "resource": {
                "category": [
                    {
                        "coding": [
                            {
                                "code": "laboratory",
                                "display": "Laboratory",
                                "system": "http://hl7.org/fhir/observation-category"
                            }
                        ],
                        "text": "Laboratory"
                    }
                ],
                "code": {
                    "coding": [
                        {
                            "code": "5811-5",
                            "display": "Sp Gr Ur Strip",
                            "system": "http://loinc.org"
                        }
                    ],
                    "text": "Sp Gr Ur Strip"
                },
                "effectiveDateTime": "2006-07-26",
                "id": "nhs-1413-lab",
                "identifier": [
                    {
                        "system": "http://www.bmc.nl/zorgportal/identifiers/observations",
                        "use": "official",
                        "value": "nhs-1413-lab"
                    }
                ],
                "performer": [
                    {
                        "reference": "Practitioner/nhs-Practitioner-7880378"
                    }
                ],
                "resourceType": "Observation",
                "status": "unknown",
                "subject": {
                    "reference": "Patient/nhs-1796238"
                },
                "text": {
                    "div": "<div xmlns=\"http://www.w3.org/1999/xhtml\">2006-07-26: Sp Gr Ur Strip = 1.014 </div>",
                    "status": "generated"
                },
                "valueQuantity": {
                    "system": "http://unitsofmeasure.org",
                    "value": 1.014
                },
                "meta": {
                    "tag": [
                        {
                            "system": "https://smarthealthit.org/tags",
                            "code": "nhs"
                        }
                    ]
                }
            },
            "fullUrl": "/Observation/nhs-1413-lab"
        },
        {
            "request": {
                "method": "PUT",
                "url": "Observation/nhs-1414-lab"
            },
            "resource": {
                "category": [
                    {
                        "coding": [
                            {
                                "code": "laboratory",
                                "display": "Laboratory",
                                "system": "http://hl7.org/fhir/observation-category"
                            }
                        ],
                        "text": "Laboratory"
                    }
                ],
                "code": {
                    "coding": [
                        {
                            "code": "5803-2",
                            "display": "pH Ur Strip",
                            "system": "http://loinc.org"
                        }
                    ],
                    "text": "pH Ur Strip"
                },
                "effectiveDateTime": "2006-07-26",
                "id": "nhs-1414-lab",
                "identifier": [
                    {
                        "system": "http://www.bmc.nl/zorgportal/identifiers/observations",
                        "use": "official",
                        "value": "nhs-1414-lab"
                    }
                ],
                "performer": [
                    {
                        "reference": "Practitioner/nhs-Practitioner-7880378"
                    }
                ],
                "referenceRange": [
                    {
                        "high": {
                            "code": "[pH]",
                            "system": "http://unitsofmeasure.org",
                            "unit": "[pH]",
                            "value": 8
                        },
                        "low": {
                            "code": "[pH]",
                            "system": "http://unitsofmeasure.org",
                            "unit": "[pH]",
                            "value": 5
                        },
                        "type": {
                            "coding": [
                                {
                                    "code": "normal",
                                    "display": "Normal Range",
                                    "system": "http://hl7.org/fhir/referencerange-meaning"
                                }
                            ],
                            "text": "Normal Range"
                        }
                    }
                ],
                "resourceType": "Observation",
                "status": "unknown",
                "subject": {
                    "reference": "Patient/nhs-1796238"
                },
                "text": {
                    "div": "<div xmlns=\"http://www.w3.org/1999/xhtml\">2006-07-26: pH Ur Strip = 5.5 [pH]</div>",
                    "status": "generated"
                },
                "valueQuantity": {
                    "code": "[pH]",
                    "system": "http://unitsofmeasure.org",
                    "unit": "[pH]",
                    "value": 5.5
                },
                "meta": {
                    "tag": [
                        {
                            "system": "https://smarthealthit.org/tags",
                            "code": "nhs"
                        }
                    ]
                }
            },
            "fullUrl": "/Observation/nhs-1414-lab"
        },
        {
            "request": {
                "method": "PUT",
                "url": "Observation/nhs-1415-lab"
            },
            "resource": {
                "category": [
                    {
                        "coding": [
                            {
                                "code": "laboratory",
                                "display": "Laboratory",
                                "system": "http://hl7.org/fhir/observation-category"
                            }
                        ],
                        "text": "Laboratory"
                    }
                ],
                "code": {
                    "coding": [
                        {
                            "code": "5804-0",
                            "display": "Prot Ur Strip-mCnc",
                            "system": "http://loinc.org"
                        }
                    ],
                    "text": "Prot Ur Strip-mCnc"
                },
                "effectiveDateTime": "2006-07-26",
                "id": "nhs-1415-lab",
                "identifier": [
                    {
                        "system": "http://www.bmc.nl/zorgportal/identifiers/observations",
                        "use": "official",
                        "value": "nhs-1415-lab"
                    }
                ],
                "performer": [
                    {
                        "reference": "Practitioner/nhs-Practitioner-7880378"
                    }
                ],
                "referenceRange": [
                    {
                        "high": {
                            "code": "mg/dL",
                            "system": "http://unitsofmeasure.org",
                            "unit": "mg/dL",
                            "value": 0
                        },
                        "low": {
                            "code": "mg/dL",
                            "system": "http://unitsofmeasure.org",
                            "unit": "mg/dL",
                            "value": 0
                        },
                        "type": {
                            "coding": [
                                {
                                    "code": "normal",
                                    "display": "Normal Range",
                                    "system": "http://hl7.org/fhir/referencerange-meaning"
                                }
                            ],
                            "text": "Normal Range"
                        }
                    }
                ],
                "resourceType": "Observation",
                "status": "unknown",
                "subject": {
                    "reference": "Patient/nhs-1796238"
                },
                "text": {
                    "div": "<div xmlns=\"http://www.w3.org/1999/xhtml\">2006-07-26: Prot Ur Strip-mCnc = 30 mg/dL</div>",
                    "status": "generated"
                },
                "valueQuantity": {
                    "code": "mg/dL",
                    "system": "http://unitsofmeasure.org",
                    "unit": "mg/dL",
                    "value": 30
                },
                "meta": {
                    "tag": [
                        {
                            "system": "https://smarthealthit.org/tags",
                            "code": "nhs"
                        }
                    ]
                }
            },
            "fullUrl": "/Observation/nhs-1415-lab"
        },
        {
            "request": {
                "method": "PUT",
                "url": "Observation/nhs-1416-lab"
            },
            "resource": {
                "category": [
                    {
                        "coding": [
                            {
                                "code": "laboratory",
                                "display": "Laboratory",
                                "system": "http://hl7.org/fhir/observation-category"
                            }
                        ],
                        "text": "Laboratory"
                    }
                ],
                "code": {
                    "coding": [
                        {
                            "code": "26515-7",
                            "display": "Platelet # Bld",
                            "system": "http://loinc.org"
                        }
                    ],
                    "text": "Platelet # Bld"
                },
                "effectiveDateTime": "2006-07-26",
                "id": "nhs-1416-lab",
                "identifier": [
                    {
                        "system": "http://www.bmc.nl/zorgportal/identifiers/observations",
                        "use": "official",
                        "value": "nhs-1416-lab"
                    }
                ],
                "performer": [
                    {
                        "reference": "Practitioner/nhs-Practitioner-7880378"
                    }
                ],
                "referenceRange": [
                    {
                        "high": {
                            "code": "10*3/uL",
                            "system": "http://unitsofmeasure.org",
                            "unit": "10*3/uL",
                            "value": 450
                        },
                        "low": {
                            "code": "10*3/uL",
                            "system": "http://unitsofmeasure.org",
                            "unit": "10*3/uL",
                            "value": 150
                        },
                        "type": {
                            "coding": [
                                {
                                    "code": "normal",
                                    "display": "Normal Range",
                                    "system": "http://hl7.org/fhir/referencerange-meaning"
                                }
                            ],
                            "text": "Normal Range"
                        }
                    }
                ],
                "resourceType": "Observation",
                "status": "unknown",
                "subject": {
                    "reference": "Patient/nhs-1796238"
                },
                "text": {
                    "div": "<div xmlns=\"http://www.w3.org/1999/xhtml\">2006-07-26: Platelet # Bld = 316 10*3/uL</div>",
                    "status": "generated"
                },
                "valueQuantity": {
                    "code": "10*3/uL",
                    "system": "http://unitsofmeasure.org",
                    "unit": "10*3/uL",
                    "value": 316
                },
                "meta": {
                    "tag": [
                        {
                            "system": "https://smarthealthit.org/tags",
                            "code": "nhs"
                        }
                    ]
                }
            },
            "fullUrl": "/Observation/nhs-1416-lab"
        },
        {
            "request": {
                "method": "PUT",
                "url": "Observation/nhs-1417-lab"
            },
            "resource": {
                "category": [
                    {
                        "coding": [
                            {
                                "code": "laboratory",
                                "display": "Laboratory",
                                "system": "http://hl7.org/fhir/observation-category"
                            }
                        ],
                        "text": "Laboratory"
                    }
                ],
                "code": {
                    "coding": [
                        {
                            "code": "8247-9",
                            "display": "Mucous Threads UrnS Ql Micro",
                            "system": "http://loinc.org"
                        }
                    ],
                    "text": "Mucous Threads UrnS Ql Micro"
                },
                "effectiveDateTime": "2006-07-26",
                "extension": [
                    {
                        "url": "http://fhir-registry.smarthealthit.org/StructureDefinition/labs#value-range",
                        "valueString": [
                            "None",
                            "Rare",
                            "Moderate",
                            "Many"
                        ]
                    }
                ],
                "id": "nhs-1417-lab",
                "identifier": [
                    {
                        "system": "http://www.bmc.nl/zorgportal/identifiers/observations",
                        "use": "official",
                        "value": "nhs-1417-lab"
                    }
                ],
                "performer": [
                    {
                        "reference": "Practitioner/nhs-Practitioner-7880378"
                    }
                ],
                "resourceType": "Observation",
                "status": "unknown",
                "subject": {
                    "reference": "Patient/nhs-1796238"
                },
                "text": {
                    "div": "<div xmlns=\"http://www.w3.org/1999/xhtml\">2006-07-26: Mucous Threads UrnS Ql Micro = Rare </div>",
                    "status": "generated"
                },
                "valueString": "Rare",
                "meta": {
                    "tag": [
                        {
                            "system": "https://smarthealthit.org/tags",
                            "code": "nhs"
                        }
                    ]
                }
            },
            "fullUrl": "/Observation/nhs-1417-lab"
        },
        {
            "request": {
                "method": "PUT",
                "url": "Observation/nhs-1418-lab"
            },
            "resource": {
                "category": [
                    {
                        "coding": [
                            {
                                "code": "laboratory",
                                "display": "Laboratory",
                                "system": "http://hl7.org/fhir/observation-category"
                            }
                        ],
                        "text": "Laboratory"
                    }
                ],
                "code": {
                    "coding": [
                        {
                            "code": "5769-5",
                            "display": "Bacteria #/area UrnS HPF",
                            "system": "http://loinc.org"
                        }
                    ],
                    "text": "Bacteria #/area UrnS HPF"
                },
                "effectiveDateTime": "2006-07-26",
                "id": "nhs-1418-lab",
                "identifier": [
                    {
                        "system": "http://www.bmc.nl/zorgportal/identifiers/observations",
                        "use": "official",
                        "value": "nhs-1418-lab"
                    }
                ],
                "performer": [
                    {
                        "reference": "Practitioner/nhs-Practitioner-7880378"
                    }
                ],
                "referenceRange": [
                    {
                        "high": {
                            "code": "/[HPF]",
                            "system": "http://unitsofmeasure.org",
                            "unit": "/[HPF]",
                            "value": 0
                        },
                        "low": {
                            "code": "/[HPF]",
                            "system": "http://unitsofmeasure.org",
                            "unit": "/[HPF]",
                            "value": 0
                        },
                        "type": {
                            "coding": [
                                {
                                    "code": "normal",
                                    "display": "Normal Range",
                                    "system": "http://hl7.org/fhir/referencerange-meaning"
                                }
                            ],
                            "text": "Normal Range"
                        }
                    }
                ],
                "resourceType": "Observation",
                "status": "unknown",
                "subject": {
                    "reference": "Patient/nhs-1796238"
                },
                "text": {
                    "div": "<div xmlns=\"http://www.w3.org/1999/xhtml\">2006-07-26: Bacteria #/area UrnS HPF = 0 /[HPF]</div>",
                    "status": "generated"
                },
                "valueQuantity": {
                    "code": "/[HPF]",
                    "system": "http://unitsofmeasure.org",
                    "unit": "/[HPF]",
                    "value": 0
                },
                "meta": {
                    "tag": [
                        {
                            "system": "https://smarthealthit.org/tags",
                            "code": "nhs"
                        }
                    ]
                }
            },
            "fullUrl": "/Observation/nhs-1418-lab"
        },
        {
            "request": {
                "method": "PUT",
                "url": "Observation/nhs-1419-lab"
            },
            "resource": {
                "category": [
                    {
                        "coding": [
                            {
                                "code": "laboratory",
                                "display": "Laboratory",
                                "system": "http://hl7.org/fhir/observation-category"
                            }
                        ],
                        "text": "Laboratory"
                    }
                ],
                "code": {
                    "coding": [
                        {
                            "code": "26464-8",
                            "display": "WBC # Bld",
                            "system": "http://loinc.org"
                        }
                    ],
                    "text": "WBC # Bld"
                },
                "effectiveDateTime": "2006-07-26",
                "id": "nhs-1419-lab",
                "identifier": [
                    {
                        "system": "http://www.bmc.nl/zorgportal/identifiers/observations",
                        "use": "official",
                        "value": "nhs-1419-lab"
                    }
                ],
                "performer": [
                    {
                        "reference": "Practitioner/nhs-Practitioner-7880378"
                    }
                ],
                "referenceRange": [
                    {
                        "high": {
                            "code": "10*3/uL",
                            "system": "http://unitsofmeasure.org",
                            "unit": "10*3/uL",
                            "value": 11.5
                        },
                        "low": {
                            "code": "10*3/uL",
                            "system": "http://unitsofmeasure.org",
                            "unit": "10*3/uL",
                            "value": 4.5
                        },
                        "type": {
                            "coding": [
                                {
                                    "code": "normal",
                                    "display": "Normal Range",
                                    "system": "http://hl7.org/fhir/referencerange-meaning"
                                }
                            ],
                            "text": "Normal Range"
                        }
                    }
                ],
                "resourceType": "Observation",
                "status": "unknown",
                "subject": {
                    "reference": "Patient/nhs-1796238"
                },
                "text": {
                    "div": "<div xmlns=\"http://www.w3.org/1999/xhtml\">2006-07-26: WBC # Bld = 9.7 10*3/uL</div>",
                    "status": "generated"
                },
                "valueQuantity": {
                    "code": "10*3/uL",
                    "system": "http://unitsofmeasure.org",
                    "unit": "10*3/uL",
                    "value": 9.7
                },
                "meta": {
                    "tag": [
                        {
                            "system": "https://smarthealthit.org/tags",
                            "code": "nhs"
                        }
                    ]
                }
            },
            "fullUrl": "/Observation/nhs-1419-lab"
        },
        {
            "request": {
                "method": "PUT",
                "url": "Observation/nhs-1420-lab"
            },
            "resource": {
                "category": [
                    {
                        "coding": [
                            {
                                "code": "laboratory",
                                "display": "Laboratory",
                                "system": "http://hl7.org/fhir/observation-category"
                            }
                        ],
                        "text": "Laboratory"
                    }
                ],
                "code": {
                    "coding": [
                        {
                            "code": "789-8",
                            "display": "RBC # Bld Auto",
                            "system": "http://loinc.org"
                        }
                    ],
                    "text": "RBC # Bld Auto"
                },
                "effectiveDateTime": "2006-07-26",
                "id": "nhs-1420-lab",
                "identifier": [
                    {
                        "system": "http://www.bmc.nl/zorgportal/identifiers/observations",
                        "use": "official",
                        "value": "nhs-1420-lab"
                    }
                ],
                "performer": [
                    {
                        "reference": "Practitioner/nhs-Practitioner-7880378"
                    }
                ],
                "referenceRange": [
                    {
                        "high": {
                            "code": "10*6/uL",
                            "system": "http://unitsofmeasure.org",
                            "unit": "10*6/uL",
                            "value": 6
                        },
                        "low": {
                            "code": "10*6/uL",
                            "system": "http://unitsofmeasure.org",
                            "unit": "10*6/uL",
                            "value": 4.6
                        },
                        "type": {
                            "coding": [
                                {
                                    "code": "normal",
                                    "display": "Normal Range",
                                    "system": "http://hl7.org/fhir/referencerange-meaning"
                                }
                            ],
                            "text": "Normal Range"
                        }
                    }
                ],
                "resourceType": "Observation",
                "status": "unknown",
                "subject": {
                    "reference": "Patient/nhs-1796238"
                },
                "text": {
                    "div": "<div xmlns=\"http://www.w3.org/1999/xhtml\">2006-07-26: RBC # Bld Auto = 4.68 10*6/uL</div>",
                    "status": "generated"
                },
                "valueQuantity": {
                    "code": "10*6/uL",
                    "system": "http://unitsofmeasure.org",
                    "unit": "10*6/uL",
                    "value": 4.68
                },
                "meta": {
                    "tag": [
                        {
                            "system": "https://smarthealthit.org/tags",
                            "code": "nhs"
                        }
                    ]
                }
            },
            "fullUrl": "/Observation/nhs-1420-lab"
        },
        {
            "request": {
                "method": "PUT",
                "url": "Observation/nhs-1421-lab"
            },
            "resource": {
                "category": [
                    {
                        "coding": [
                            {
                                "code": "laboratory",
                                "display": "Laboratory",
                                "system": "http://hl7.org/fhir/observation-category"
                            }
                        ],
                        "text": "Laboratory"
                    }
                ],
                "code": {
                    "coding": [
                        {
                            "code": "2823-3",
                            "display": "Potassium SerPl-sCnc",
                            "system": "http://loinc.org"
                        }
                    ],
                    "text": "Potassium SerPl-sCnc"
                },
                "effectiveDateTime": "2006-07-26",
                "id": "nhs-1421-lab",
                "identifier": [
                    {
                        "system": "http://www.bmc.nl/zorgportal/identifiers/observations",
                        "use": "official",
                        "value": "nhs-1421-lab"
                    }
                ],
                "performer": [
                    {
                        "reference": "Practitioner/nhs-Practitioner-7880378"
                    }
                ],
                "referenceRange": [
                    {
                        "high": {
                            "code": "mmol/L",
                            "system": "http://unitsofmeasure.org",
                            "unit": "mmol/L",
                            "value": 5.5
                        },
                        "low": {
                            "code": "mmol/L",
                            "system": "http://unitsofmeasure.org",
                            "unit": "mmol/L",
                            "value": 3.5
                        },
                        "type": {
                            "coding": [
                                {
                                    "code": "normal",
                                    "display": "Normal Range",
                                    "system": "http://hl7.org/fhir/referencerange-meaning"
                                }
                            ],
                            "text": "Normal Range"
                        }
                    }
                ],
                "resourceType": "Observation",
                "status": "unknown",
                "subject": {
                    "reference": "Patient/nhs-1796238"
                },
                "text": {
                    "div": "<div xmlns=\"http://www.w3.org/1999/xhtml\">2006-07-26: Potassium SerPl-sCnc = 4 mmol/L</div>",
                    "status": "generated"
                },
                "valueQuantity": {
                    "code": "mmol/L",
                    "system": "http://unitsofmeasure.org",
                    "unit": "mmol/L",
                    "value": 4
                },
                "meta": {
                    "tag": [
                        {
                            "system": "https://smarthealthit.org/tags",
                            "code": "nhs"
                        }
                    ]
                }
            },
            "fullUrl": "/Observation/nhs-1421-lab"
        },
        {
            "request": {
                "method": "PUT",
                "url": "Observation/nhs-1422-lab"
            },
            "resource": {
                "category": [
                    {
                        "coding": [
                            {
                                "code": "laboratory",
                                "display": "Laboratory",
                                "system": "http://hl7.org/fhir/observation-category"
                            }
                        ],
                        "text": "Laboratory"
                    }
                ],
                "code": {
                    "coding": [
                        {
                            "code": "2075-0",
                            "display": "Chloride SerPl-sCnc",
                            "system": "http://loinc.org"
                        }
                    ],
                    "text": "Chloride SerPl-sCnc"
                },
                "effectiveDateTime": "2006-07-26",
                "id": "nhs-1422-lab",
                "identifier": [
                    {
                        "system": "http://www.bmc.nl/zorgportal/identifiers/observations",
                        "use": "official",
                        "value": "nhs-1422-lab"
                    }
                ],
                "performer": [
                    {
                        "reference": "Practitioner/nhs-Practitioner-7880378"
                    }
                ],
                "referenceRange": [
                    {
                        "high": {
                            "code": "mmol/L",
                            "system": "http://unitsofmeasure.org",
                            "unit": "mmol/L",
                            "value": 105
                        },
                        "low": {
                            "code": "mmol/L",
                            "system": "http://unitsofmeasure.org",
                            "unit": "mmol/L",
                            "value": 95
                        },
                        "type": {
                            "coding": [
                                {
                                    "code": "normal",
                                    "display": "Normal Range",
                                    "system": "http://hl7.org/fhir/referencerange-meaning"
                                }
                            ],
                            "text": "Normal Range"
                        }
                    }
                ],
                "resourceType": "Observation",
                "status": "unknown",
                "subject": {
                    "reference": "Patient/nhs-1796238"
                },
                "text": {
                    "div": "<div xmlns=\"http://www.w3.org/1999/xhtml\">2006-07-26: Chloride SerPl-sCnc = 100 mmol/L</div>",
                    "status": "generated"
                },
                "valueQuantity": {
                    "code": "mmol/L",
                    "system": "http://unitsofmeasure.org",
                    "unit": "mmol/L",
                    "value": 100
                },
                "meta": {
                    "tag": [
                        {
                            "system": "https://smarthealthit.org/tags",
                            "code": "nhs"
                        }
                    ]
                }
            },
            "fullUrl": "/Observation/nhs-1422-lab"
        },
        {
            "request": {
                "method": "PUT",
                "url": "Observation/nhs-1423-lab"
            },
            "resource": {
                "category": [
                    {
                        "coding": [
                            {
                                "code": "laboratory",
                                "display": "Laboratory",
                                "system": "http://hl7.org/fhir/observation-category"
                            }
                        ],
                        "text": "Laboratory"
                    }
                ],
                "code": {
                    "coding": [
                        {
                            "code": "2028-9",
                            "display": "CO2 SerPl-sCnc",
                            "system": "http://loinc.org"
                        }
                    ],
                    "text": "CO2 SerPl-sCnc"
                },
                "effectiveDateTime": "2006-07-26",
                "id": "nhs-1423-lab",
                "identifier": [
                    {
                        "system": "http://www.bmc.nl/zorgportal/identifiers/observations",
                        "use": "official",
                        "value": "nhs-1423-lab"
                    }
                ],
                "performer": [
                    {
                        "reference": "Practitioner/nhs-Practitioner-7880378"
                    }
                ],
                "referenceRange": [
                    {
                        "high": {
                            "code": "mmol/L",
                            "system": "http://unitsofmeasure.org",
                            "unit": "mmol/L",
                            "value": 29
                        },
                        "low": {
                            "code": "mmol/L",
                            "system": "http://unitsofmeasure.org",
                            "unit": "mmol/L",
                            "value": 22
                        },
                        "type": {
                            "coding": [
                                {
                                    "code": "normal",
                                    "display": "Normal Range",
                                    "system": "http://hl7.org/fhir/referencerange-meaning"
                                }
                            ],
                            "text": "Normal Range"
                        }
                    }
                ],
                "resourceType": "Observation",
                "status": "unknown",
                "subject": {
                    "reference": "Patient/nhs-1796238"
                },
                "text": {
                    "div": "<div xmlns=\"http://www.w3.org/1999/xhtml\">2006-07-26: CO2 SerPl-sCnc = 29 mmol/L</div>",
                    "status": "generated"
                },
                "valueQuantity": {
                    "code": "mmol/L",
                    "system": "http://unitsofmeasure.org",
                    "unit": "mmol/L",
                    "value": 29
                },
                "meta": {
                    "tag": [
                        {
                            "system": "https://smarthealthit.org/tags",
                            "code": "nhs"
                        }
                    ]
                }
            },
            "fullUrl": "/Observation/nhs-1423-lab"
        },
        {
            "request": {
                "method": "PUT",
                "url": "Observation/nhs-1424-lab"
            },
            "resource": {
                "category": [
                    {
                        "coding": [
                            {
                                "code": "laboratory",
                                "display": "Laboratory",
                                "system": "http://hl7.org/fhir/observation-category"
                            }
                        ],
                        "text": "Laboratory"
                    }
                ],
                "code": {
                    "coding": [
                        {
                            "code": "2951-2",
                            "display": "Sodium SerPl-sCnc",
                            "system": "http://loinc.org"
                        }
                    ],
                    "text": "Sodium SerPl-sCnc"
                },
                "effectiveDateTime": "2006-07-26",
                "id": "nhs-1424-lab",
                "identifier": [
                    {
                        "system": "http://www.bmc.nl/zorgportal/identifiers/observations",
                        "use": "official",
                        "value": "nhs-1424-lab"
                    }
                ],
                "performer": [
                    {
                        "reference": "Practitioner/nhs-Practitioner-7880378"
                    }
                ],
                "referenceRange": [
                    {
                        "high": {
                            "code": "mmol/L",
                            "system": "http://unitsofmeasure.org",
                            "unit": "mmol/L",
                            "value": 145
                        },
                        "low": {
                            "code": "mmol/L",
                            "system": "http://unitsofmeasure.org",
                            "unit": "mmol/L",
                            "value": 135
                        },
                        "type": {
                            "coding": [
                                {
                                    "code": "normal",
                                    "display": "Normal Range",
                                    "system": "http://hl7.org/fhir/referencerange-meaning"
                                }
                            ],
                            "text": "Normal Range"
                        }
                    }
                ],
                "resourceType": "Observation",
                "status": "unknown",
                "subject": {
                    "reference": "Patient/nhs-1796238"
                },
                "text": {
                    "div": "<div xmlns=\"http://www.w3.org/1999/xhtml\">2006-07-26: Sodium SerPl-sCnc = 136 mmol/L</div>",
                    "status": "generated"
                },
                "valueQuantity": {
                    "code": "mmol/L",
                    "system": "http://unitsofmeasure.org",
                    "unit": "mmol/L",
                    "value": 136
                },
                "meta": {
                    "tag": [
                        {
                            "system": "https://smarthealthit.org/tags",
                            "code": "nhs"
                        }
                    ]
                }
            },
            "fullUrl": "/Observation/nhs-1424-lab"
        },
        {
            "request": {
                "method": "PUT",
                "url": "Observation/nhs-1425-lab"
            },
            "resource": {
                "category": [
                    {
                        "coding": [
                            {
                                "code": "laboratory",
                                "display": "Laboratory",
                                "system": "http://hl7.org/fhir/observation-category"
                            }
                        ],
                        "text": "Laboratory"
                    }
                ],
                "code": {
                    "coding": [
                        {
                            "code": "28542-9",
                            "display": "PMV Bld",
                            "system": "http://loinc.org"
                        }
                    ],
                    "text": "PMV Bld"
                },
                "effectiveDateTime": "2006-07-26",
                "id": "nhs-1425-lab",
                "identifier": [
                    {
                        "system": "http://www.bmc.nl/zorgportal/identifiers/observations",
                        "use": "official",
                        "value": "nhs-1425-lab"
                    }
                ],
                "performer": [
                    {
                        "reference": "Practitioner/nhs-Practitioner-7880378"
                    }
                ],
                "referenceRange": [
                    {
                        "high": {
                            "code": "fL",
                            "system": "http://unitsofmeasure.org",
                            "unit": "fL",
                            "value": 9.6
                        },
                        "low": {
                            "code": "fL",
                            "system": "http://unitsofmeasure.org",
                            "unit": "fL",
                            "value": 6.3
                        },
                        "type": {
                            "coding": [
                                {
                                    "code": "normal",
                                    "display": "Normal Range",
                                    "system": "http://hl7.org/fhir/referencerange-meaning"
                                }
                            ],
                            "text": "Normal Range"
                        }
                    }
                ],
                "resourceType": "Observation",
                "status": "unknown",
                "subject": {
                    "reference": "Patient/nhs-1796238"
                },
                "text": {
                    "div": "<div xmlns=\"http://www.w3.org/1999/xhtml\">2006-07-26: PMV Bld = 8.6 fL</div>",
                    "status": "generated"
                },
                "valueQuantity": {
                    "code": "fL",
                    "system": "http://unitsofmeasure.org",
                    "unit": "fL",
                    "value": 8.6
                },
                "meta": {
                    "tag": [
                        {
                            "system": "https://smarthealthit.org/tags",
                            "code": "nhs"
                        }
                    ]
                }
            },
            "fullUrl": "/Observation/nhs-1425-lab"
        },
        {
            "request": {
                "method": "PUT",
                "url": "Observation/nhs-1426-lab"
            },
            "resource": {
                "category": [
                    {
                        "coding": [
                            {
                                "code": "laboratory",
                                "display": "Laboratory",
                                "system": "http://hl7.org/fhir/observation-category"
                            }
                        ],
                        "text": "Laboratory"
                    }
                ],
                "code": {
                    "coding": [
                        {
                            "code": "30385-9",
                            "display": "RDW RBC-Rto",
                            "system": "http://loinc.org"
                        }
                    ],
                    "text": "RDW RBC-Rto"
                },
                "effectiveDateTime": "2006-07-26",
                "id": "nhs-1426-lab",
                "identifier": [
                    {
                        "system": "http://www.bmc.nl/zorgportal/identifiers/observations",
                        "use": "official",
                        "value": "nhs-1426-lab"
                    }
                ],
                "performer": [
                    {
                        "reference": "Practitioner/nhs-Practitioner-7880378"
                    }
                ],
                "referenceRange": [
                    {
                        "high": {
                            "code": "%",
                            "system": "http://unitsofmeasure.org",
                            "unit": "%",
                            "value": 14.5
                        },
                        "low": {
                            "code": "%",
                            "system": "http://unitsofmeasure.org",
                            "unit": "%",
                            "value": 11.5
                        },
                        "type": {
                            "coding": [
                                {
                                    "code": "normal",
                                    "display": "Normal Range",
                                    "system": "http://hl7.org/fhir/referencerange-meaning"
                                }
                            ],
                            "text": "Normal Range"
                        }
                    }
                ],
                "resourceType": "Observation",
                "status": "unknown",
                "subject": {
                    "reference": "Patient/nhs-1796238"
                },
                "text": {
                    "div": "<div xmlns=\"http://www.w3.org/1999/xhtml\">2006-07-26: RDW RBC-Rto = 13.2 %</div>",
                    "status": "generated"
                },
                "valueQuantity": {
                    "code": "%",
                    "system": "http://unitsofmeasure.org",
                    "unit": "%",
                    "value": 13.2
                },
                "meta": {
                    "tag": [
                        {
                            "system": "https://smarthealthit.org/tags",
                            "code": "nhs"
                        }
                    ]
                }
            },
            "fullUrl": "/Observation/nhs-1426-lab"
        },
        {
            "request": {
                "method": "PUT",
                "url": "Observation/nhs-1427-lab"
            },
            "resource": {
                "category": [
                    {
                        "coding": [
                            {
                                "code": "laboratory",
                                "display": "Laboratory",
                                "system": "http://hl7.org/fhir/observation-category"
                            }
                        ],
                        "text": "Laboratory"
                    }
                ],
                "code": {
                    "coding": [
                        {
                            "code": "5821-4",
                            "display": "WBC #/area UrnS HPF",
                            "system": "http://loinc.org"
                        }
                    ],
                    "text": "WBC #/area UrnS HPF"
                },
                "effectiveDateTime": "2006-07-26",
                "id": "nhs-1427-lab",
                "identifier": [
                    {
                        "system": "http://www.bmc.nl/zorgportal/identifiers/observations",
                        "use": "official",
                        "value": "nhs-1427-lab"
                    }
                ],
                "performer": [
                    {
                        "reference": "Practitioner/nhs-Practitioner-7880378"
                    }
                ],
                "referenceRange": [
                    {
                        "high": {
                            "code": "/[HPF]",
                            "system": "http://unitsofmeasure.org",
                            "unit": "/[HPF]",
                            "value": 5
                        },
                        "low": {
                            "code": "/[HPF]",
                            "system": "http://unitsofmeasure.org",
                            "unit": "/[HPF]",
                            "value": 0
                        },
                        "type": {
                            "coding": [
                                {
                                    "code": "normal",
                                    "display": "Normal Range",
                                    "system": "http://hl7.org/fhir/referencerange-meaning"
                                }
                            ],
                            "text": "Normal Range"
                        }
                    }
                ],
                "resourceType": "Observation",
                "status": "unknown",
                "subject": {
                    "reference": "Patient/nhs-1796238"
                },
                "text": {
                    "div": "<div xmlns=\"http://www.w3.org/1999/xhtml\">2006-07-26: WBC #/area UrnS HPF = 6 /[HPF]</div>",
                    "status": "generated"
                },
                "valueQuantity": {
                    "code": "/[HPF]",
                    "system": "http://unitsofmeasure.org",
                    "unit": "/[HPF]",
                    "value": 6
                },
                "meta": {
                    "tag": [
                        {
                            "system": "https://smarthealthit.org/tags",
                            "code": "nhs"
                        }
                    ]
                }
            },
            "fullUrl": "/Observation/nhs-1427-lab"
        },
        {
            "request": {
                "method": "PUT",
                "url": "Observation/nhs-1428-lab"
            },
            "resource": {
                "category": [
                    {
                        "coding": [
                            {
                                "code": "laboratory",
                                "display": "Laboratory",
                                "system": "http://hl7.org/fhir/observation-category"
                            }
                        ],
                        "text": "Laboratory"
                    }
                ],
                "code": {
                    "coding": [
                        {
                            "code": "13945-1",
                            "display": "RBC #/area UrnS HPF",
                            "system": "http://loinc.org"
                        }
                    ],
                    "text": "RBC #/area UrnS HPF"
                },
                "effectiveDateTime": "2006-07-26",
                "id": "nhs-1428-lab",
                "identifier": [
                    {
                        "system": "http://www.bmc.nl/zorgportal/identifiers/observations",
                        "use": "official",
                        "value": "nhs-1428-lab"
                    }
                ],
                "performer": [
                    {
                        "reference": "Practitioner/nhs-Practitioner-7880378"
                    }
                ],
                "referenceRange": [
                    {
                        "high": {
                            "code": "/[HPF]",
                            "system": "http://unitsofmeasure.org",
                            "unit": "/[HPF]",
                            "value": 2
                        },
                        "low": {
                            "code": "/[HPF]",
                            "system": "http://unitsofmeasure.org",
                            "unit": "/[HPF]",
                            "value": 0
                        },
                        "type": {
                            "coding": [
                                {
                                    "code": "normal",
                                    "display": "Normal Range",
                                    "system": "http://hl7.org/fhir/referencerange-meaning"
                                }
                            ],
                            "text": "Normal Range"
                        }
                    }
                ],
                "resourceType": "Observation",
                "status": "unknown",
                "subject": {
                    "reference": "Patient/nhs-1796238"
                },
                "text": {
                    "div": "<div xmlns=\"http://www.w3.org/1999/xhtml\">2006-07-26: RBC #/area UrnS HPF = 63 /[HPF]</div>",
                    "status": "generated"
                },
                "valueQuantity": {
                    "code": "/[HPF]",
                    "system": "http://unitsofmeasure.org",
                    "unit": "/[HPF]",
                    "value": 63
                },
                "meta": {
                    "tag": [
                        {
                            "system": "https://smarthealthit.org/tags",
                            "code": "nhs"
                        }
                    ]
                }
            },
            "fullUrl": "/Observation/nhs-1428-lab"
        },
        {
            "request": {
                "method": "PUT",
                "url": "Observation/nhs-1429-lab"
            },
            "resource": {
                "category": [
                    {
                        "coding": [
                            {
                                "code": "laboratory",
                                "display": "Laboratory",
                                "system": "http://hl7.org/fhir/observation-category"
                            }
                        ],
                        "text": "Laboratory"
                    }
                ],
                "code": {
                    "coding": [
                        {
                            "code": "2345-7",
                            "display": "Glucose SerPl-mCnc",
                            "system": "http://loinc.org"
                        }
                    ],
                    "text": "Glucose SerPl-mCnc"
                },
                "effectiveDateTime": "2006-07-26",
                "id": "nhs-1429-lab",
                "identifier": [
                    {
                        "system": "http://www.bmc.nl/zorgportal/identifiers/observations",
                        "use": "official",
                        "value": "nhs-1429-lab"
                    }
                ],
                "performer": [
                    {
                        "reference": "Practitioner/nhs-Practitioner-7880378"
                    }
                ],
                "referenceRange": [
                    {
                        "high": {
                            "code": "mg/dL",
                            "system": "http://unitsofmeasure.org",
                            "unit": "mg/dL",
                            "value": 109
                        },
                        "low": {
                            "code": "mg/dL",
                            "system": "http://unitsofmeasure.org",
                            "unit": "mg/dL",
                            "value": 70
                        },
                        "type": {
                            "coding": [
                                {
                                    "code": "normal",
                                    "display": "Normal Range",
                                    "system": "http://hl7.org/fhir/referencerange-meaning"
                                }
                            ],
                            "text": "Normal Range"
                        }
                    }
                ],
                "resourceType": "Observation",
                "status": "unknown",
                "subject": {
                    "reference": "Patient/nhs-1796238"
                },
                "text": {
                    "div": "<div xmlns=\"http://www.w3.org/1999/xhtml\">2006-07-26: Glucose SerPl-mCnc = 119 mg/dL</div>",
                    "status": "generated"
                },
                "valueQuantity": {
                    "code": "mg/dL",
                    "system": "http://unitsofmeasure.org",
                    "unit": "mg/dL",
                    "value": 119
                },
                "meta": {
                    "tag": [
                        {
                            "system": "https://smarthealthit.org/tags",
                            "code": "nhs"
                        }
                    ]
                }
            },
            "fullUrl": "/Observation/nhs-1429-lab"
        },
        {
            "request": {
                "method": "PUT",
                "url": "Observation/nhs-1430-lab"
            },
            "resource": {
                "category": [
                    {
                        "coding": [
                            {
                                "code": "laboratory",
                                "display": "Laboratory",
                                "system": "http://hl7.org/fhir/observation-category"
                            }
                        ],
                        "text": "Laboratory"
                    }
                ],
                "code": {
                    "coding": [
                        {
                            "code": "3094-0",
                            "display": "BUN SerPl-mCnc",
                            "system": "http://loinc.org"
                        }
                    ],
                    "text": "BUN SerPl-mCnc"
                },
                "effectiveDateTime": "2006-07-26",
                "id": "nhs-1430-lab",
                "identifier": [
                    {
                        "system": "http://www.bmc.nl/zorgportal/identifiers/observations",
                        "use": "official",
                        "value": "nhs-1430-lab"
                    }
                ],
                "performer": [
                    {
                        "reference": "Practitioner/nhs-Practitioner-7880378"
                    }
                ],
                "referenceRange": [
                    {
                        "high": {
                            "code": "mg/dL",
                            "system": "http://unitsofmeasure.org",
                            "unit": "mg/dL",
                            "value": 20
                        },
                        "low": {
                            "code": "mg/dL",
                            "system": "http://unitsofmeasure.org",
                            "unit": "mg/dL",
                            "value": 5
                        },
                        "type": {
                            "coding": [
                                {
                                    "code": "normal",
                                    "display": "Normal Range",
                                    "system": "http://hl7.org/fhir/referencerange-meaning"
                                }
                            ],
                            "text": "Normal Range"
                        }
                    }
                ],
                "resourceType": "Observation",
                "status": "unknown",
                "subject": {
                    "reference": "Patient/nhs-1796238"
                },
                "text": {
                    "div": "<div xmlns=\"http://www.w3.org/1999/xhtml\">2006-07-26: BUN SerPl-mCnc = 12 mg/dL</div>",
                    "status": "generated"
                },
                "valueQuantity": {
                    "code": "mg/dL",
                    "system": "http://unitsofmeasure.org",
                    "unit": "mg/dL",
                    "value": 12
                },
                "meta": {
                    "tag": [
                        {
                            "system": "https://smarthealthit.org/tags",
                            "code": "nhs"
                        }
                    ]
                }
            },
            "fullUrl": "/Observation/nhs-1430-lab"
        },
        {
            "request": {
                "method": "PUT",
                "url": "Observation/nhs-1431-lab"
            },
            "resource": {
                "category": [
                    {
                        "coding": [
                            {
                                "code": "laboratory",
                                "display": "Laboratory",
                                "system": "http://hl7.org/fhir/observation-category"
                            }
                        ],
                        "text": "Laboratory"
                    }
                ],
                "code": {
                    "coding": [
                        {
                            "code": "718-7",
                            "display": "Hgb Bld-mCnc",
                            "system": "http://loinc.org"
                        }
                    ],
                    "text": "Hgb Bld-mCnc"
                },
                "effectiveDateTime": "2006-07-26",
                "id": "nhs-1431-lab",
                "identifier": [
                    {
                        "system": "http://www.bmc.nl/zorgportal/identifiers/observations",
                        "use": "official",
                        "value": "nhs-1431-lab"
                    }
                ],
                "performer": [
                    {
                        "reference": "Practitioner/nhs-Practitioner-7880378"
                    }
                ],
                "referenceRange": [
                    {
                        "high": {
                            "code": "g/dL",
                            "system": "http://unitsofmeasure.org",
                            "unit": "g/dL",
                            "value": 18
                        },
                        "low": {
                            "code": "g/dL",
                            "system": "http://unitsofmeasure.org",
                            "unit": "g/dL",
                            "value": 14
                        },
                        "type": {
                            "coding": [
                                {
                                    "code": "normal",
                                    "display": "Normal Range",
                                    "system": "http://hl7.org/fhir/referencerange-meaning"
                                }
                            ],
                            "text": "Normal Range"
                        }
                    }
                ],
                "resourceType": "Observation",
                "status": "unknown",
                "subject": {
                    "reference": "Patient/nhs-1796238"
                },
                "text": {
                    "div": "<div xmlns=\"http://www.w3.org/1999/xhtml\">2006-07-26: Hgb Bld-mCnc = 12.8 g/dL</div>",
                    "status": "generated"
                },
                "valueQuantity": {
                    "code": "g/dL",
                    "system": "http://unitsofmeasure.org",
                    "unit": "g/dL",
                    "value": 12.8
                },
                "meta": {
                    "tag": [
                        {
                            "system": "https://smarthealthit.org/tags",
                            "code": "nhs"
                        }
                    ]
                }
            },
            "fullUrl": "/Observation/nhs-1431-lab"
        },
        {
            "request": {
                "method": "PUT",
                "url": "Observation/nhs-1432-lab"
            },
            "resource": {
                "category": [
                    {
                        "coding": [
                            {
                                "code": "laboratory",
                                "display": "Laboratory",
                                "system": "http://hl7.org/fhir/observation-category"
                            }
                        ],
                        "text": "Laboratory"
                    }
                ],
                "code": {
                    "coding": [
                        {
                            "code": "2339-0",
                            "display": "Glucose Bld-mCnc",
                            "system": "http://loinc.org"
                        }
                    ],
                    "text": "Glucose Bld-mCnc"
                },
                "effectiveDateTime": "2006-07-26",
                "id": "nhs-1432-lab",
                "identifier": [
                    {
                        "system": "http://www.bmc.nl/zorgportal/identifiers/observations",
                        "use": "official",
                        "value": "nhs-1432-lab"
                    }
                ],
                "performer": [
                    {
                        "reference": "Practitioner/nhs-Practitioner-7880378"
                    }
                ],
                "referenceRange": [
                    {
                        "high": {
                            "code": "mg/dL",
                            "system": "http://unitsofmeasure.org",
                            "unit": "mg/dL",
                            "value": 109
                        },
                        "low": {
                            "code": "mg/dL",
                            "system": "http://unitsofmeasure.org",
                            "unit": "mg/dL",
                            "value": 70
                        },
                        "type": {
                            "coding": [
                                {
                                    "code": "normal",
                                    "display": "Normal Range",
                                    "system": "http://hl7.org/fhir/referencerange-meaning"
                                }
                            ],
                            "text": "Normal Range"
                        }
                    }
                ],
                "resourceType": "Observation",
                "status": "unknown",
                "subject": {
                    "reference": "Patient/nhs-1796238"
                },
                "text": {
                    "div": "<div xmlns=\"http://www.w3.org/1999/xhtml\">2006-07-26: Glucose Bld-mCnc = 90 mg/dL</div>",
                    "status": "generated"
                },
                "valueQuantity": {
                    "code": "mg/dL",
                    "system": "http://unitsofmeasure.org",
                    "unit": "mg/dL",
                    "value": 90
                },
                "meta": {
                    "tag": [
                        {
                            "system": "https://smarthealthit.org/tags",
                            "code": "nhs"
                        }
                    ]
                }
            },
            "fullUrl": "/Observation/nhs-1432-lab"
        },
        {
            "request": {
                "method": "PUT",
                "url": "Observation/nhs-1433-lab"
            },
            "resource": {
                "category": [
                    {
                        "coding": [
                            {
                                "code": "laboratory",
                                "display": "Laboratory",
                                "system": "http://hl7.org/fhir/observation-category"
                            }
                        ],
                        "text": "Laboratory"
                    }
                ],
                "code": {
                    "coding": [
                        {
                            "code": "2339-0",
                            "display": "Glucose Bld-mCnc",
                            "system": "http://loinc.org"
                        }
                    ],
                    "text": "Glucose Bld-mCnc"
                },
                "effectiveDateTime": "2006-07-26",
                "id": "nhs-1433-lab",
                "identifier": [
                    {
                        "system": "http://www.bmc.nl/zorgportal/identifiers/observations",
                        "use": "official",
                        "value": "nhs-1433-lab"
                    }
                ],
                "performer": [
                    {
                        "reference": "Practitioner/nhs-Practitioner-7880378"
                    }
                ],
                "referenceRange": [
                    {
                        "high": {
                            "code": "mg/dL",
                            "system": "http://unitsofmeasure.org",
                            "unit": "mg/dL",
                            "value": 109
                        },
                        "low": {
                            "code": "mg/dL",
                            "system": "http://unitsofmeasure.org",
                            "unit": "mg/dL",
                            "value": 70
                        },
                        "type": {
                            "coding": [
                                {
                                    "code": "normal",
                                    "display": "Normal Range",
                                    "system": "http://hl7.org/fhir/referencerange-meaning"
                                }
                            ],
                            "text": "Normal Range"
                        }
                    }
                ],
                "resourceType": "Observation",
                "status": "unknown",
                "subject": {
                    "reference": "Patient/nhs-1796238"
                },
                "text": {
                    "div": "<div xmlns=\"http://www.w3.org/1999/xhtml\">2006-07-26: Glucose Bld-mCnc = 234 mg/dL</div>",
                    "status": "generated"
                },
                "valueQuantity": {
                    "code": "mg/dL",
                    "system": "http://unitsofmeasure.org",
                    "unit": "mg/dL",
                    "value": 234
                },
                "meta": {
                    "tag": [
                        {
                            "system": "https://smarthealthit.org/tags",
                            "code": "nhs"
                        }
                    ]
                }
            },
            "fullUrl": "/Observation/nhs-1433-lab"
        },
        {
            "request": {
                "method": "PUT",
                "url": "Observation/nhs-1434-lab"
            },
            "resource": {
                "category": [
                    {
                        "coding": [
                            {
                                "code": "laboratory",
                                "display": "Laboratory",
                                "system": "http://hl7.org/fhir/observation-category"
                            }
                        ],
                        "text": "Laboratory"
                    }
                ],
                "code": {
                    "coding": [
                        {
                            "code": "2339-0",
                            "display": "Glucose Bld-mCnc",
                            "system": "http://loinc.org"
                        }
                    ],
                    "text": "Glucose Bld-mCnc"
                },
                "effectiveDateTime": "2006-07-26",
                "id": "nhs-1434-lab",
                "identifier": [
                    {
                        "system": "http://www.bmc.nl/zorgportal/identifiers/observations",
                        "use": "official",
                        "value": "nhs-1434-lab"
                    }
                ],
                "performer": [
                    {
                        "reference": "Practitioner/nhs-Practitioner-7880378"
                    }
                ],
                "referenceRange": [
                    {
                        "high": {
                            "code": "mg/dL",
                            "system": "http://unitsofmeasure.org",
                            "unit": "mg/dL",
                            "value": 109
                        },
                        "low": {
                            "code": "mg/dL",
                            "system": "http://unitsofmeasure.org",
                            "unit": "mg/dL",
                            "value": 70
                        },
                        "type": {
                            "coding": [
                                {
                                    "code": "normal",
                                    "display": "Normal Range",
                                    "system": "http://hl7.org/fhir/referencerange-meaning"
                                }
                            ],
                            "text": "Normal Range"
                        }
                    }
                ],
                "resourceType": "Observation",
                "status": "unknown",
                "subject": {
                    "reference": "Patient/nhs-1796238"
                },
                "text": {
                    "div": "<div xmlns=\"http://www.w3.org/1999/xhtml\">2006-07-26: Glucose Bld-mCnc = 115 mg/dL</div>",
                    "status": "generated"
                },
                "valueQuantity": {
                    "code": "mg/dL",
                    "system": "http://unitsofmeasure.org",
                    "unit": "mg/dL",
                    "value": 115
                },
                "meta": {
                    "tag": [
                        {
                            "system": "https://smarthealthit.org/tags",
                            "code": "nhs"
                        }
                    ]
                }
            },
            "fullUrl": "/Observation/nhs-1434-lab"
        },
        {
            "request": {
                "method": "PUT",
                "url": "Observation/nhs-1435-lab"
            },
            "resource": {
                "category": [
                    {
                        "coding": [
                            {
                                "code": "laboratory",
                                "display": "Laboratory",
                                "system": "http://hl7.org/fhir/observation-category"
                            }
                        ],
                        "text": "Laboratory"
                    }
                ],
                "code": {
                    "coding": [
                        {
                            "code": "12258-0",
                            "display": "Squamous UrnS Ql HPF",
                            "system": "http://loinc.org"
                        }
                    ],
                    "text": "Squamous UrnS Ql HPF"
                },
                "effectiveDateTime": "2006-07-26",
                "extension": [
                    {
                        "url": "http://fhir-registry.smarthealthit.org/StructureDefinition/labs#value-range",
                        "valueString": [
                            "None",
                            "Few",
                            "Moderate",
                            "Many"
                        ]
                    }
                ],
                "id": "nhs-1435-lab",
                "identifier": [
                    {
                        "system": "http://www.bmc.nl/zorgportal/identifiers/observations",
                        "use": "official",
                        "value": "nhs-1435-lab"
                    }
                ],
                "performer": [
                    {
                        "reference": "Practitioner/nhs-Practitioner-7880378"
                    }
                ],
                "resourceType": "Observation",
                "status": "unknown",
                "subject": {
                    "reference": "Patient/nhs-1796238"
                },
                "text": {
                    "div": "<div xmlns=\"http://www.w3.org/1999/xhtml\">2006-07-26: Squamous UrnS Ql HPF = None </div>",
                    "status": "generated"
                },
                "valueString": "None",
                "meta": {
                    "tag": [
                        {
                            "system": "https://smarthealthit.org/tags",
                            "code": "nhs"
                        }
                    ]
                }
            },
            "fullUrl": "/Observation/nhs-1435-lab"
        },
        {
            "request": {
                "method": "PUT",
                "url": "Observation/nhs-1436-lab"
            },
            "resource": {
                "category": [
                    {
                        "coding": [
                            {
                                "code": "laboratory",
                                "display": "Laboratory",
                                "system": "http://hl7.org/fhir/observation-category"
                            }
                        ],
                        "text": "Laboratory"
                    }
                ],
                "code": {
                    "coding": [
                        {
                            "code": "5802-4",
                            "display": "Nitrite Ur Ql Strip",
                            "system": "http://loinc.org"
                        }
                    ],
                    "text": "Nitrite Ur Ql Strip"
                },
                "effectiveDateTime": "2006-07-26",
                "extension": [
                    {
                        "url": "http://fhir-registry.smarthealthit.org/StructureDefinition/labs#value-range",
                        "valueString": [
                            "Negative",
                            "Positive"
                        ]
                    }
                ],
                "id": "nhs-1436-lab",
                "identifier": [
                    {
                        "system": "http://www.bmc.nl/zorgportal/identifiers/observations",
                        "use": "official",
                        "value": "nhs-1436-lab"
                    }
                ],
                "performer": [
                    {
                        "reference": "Practitioner/nhs-Practitioner-7880378"
                    }
                ],
                "resourceType": "Observation",
                "status": "unknown",
                "subject": {
                    "reference": "Patient/nhs-1796238"
                },
                "text": {
                    "div": "<div xmlns=\"http://www.w3.org/1999/xhtml\">2006-07-26: Nitrite Ur Ql Strip = Negative </div>",
                    "status": "generated"
                },
                "valueString": "Negative",
                "meta": {
                    "tag": [
                        {
                            "system": "https://smarthealthit.org/tags",
                            "code": "nhs"
                        }
                    ]
                }
            },
            "fullUrl": "/Observation/nhs-1436-lab"
        },
        {
            "request": {
                "method": "PUT",
                "url": "Observation/nhs-1437-lab"
            },
            "resource": {
                "category": [
                    {
                        "coding": [
                            {
                                "code": "laboratory",
                                "display": "Laboratory",
                                "system": "http://hl7.org/fhir/observation-category"
                            }
                        ],
                        "text": "Laboratory"
                    }
                ],
                "code": {
                    "coding": [
                        {
                            "code": "10466-1",
                            "display": "Anion Gap3 SerPl-sCnc",
                            "system": "http://loinc.org"
                        }
                    ],
                    "text": "Anion Gap3 SerPl-sCnc"
                },
                "effectiveDateTime": "2006-07-26",
                "id": "nhs-1437-lab",
                "identifier": [
                    {
                        "system": "http://www.bmc.nl/zorgportal/identifiers/observations",
                        "use": "official",
                        "value": "nhs-1437-lab"
                    }
                ],
                "performer": [
                    {
                        "reference": "Practitioner/nhs-Practitioner-7880378"
                    }
                ],
                "referenceRange": [
                    {
                        "high": {
                            "code": "mmol/L",
                            "system": "http://unitsofmeasure.org",
                            "unit": "mmol/L",
                            "value": 0
                        },
                        "low": {
                            "code": "mmol/L",
                            "system": "http://unitsofmeasure.org",
                            "unit": "mmol/L",
                            "value": 0
                        },
                        "type": {
                            "coding": [
                                {
                                    "code": "normal",
                                    "display": "Normal Range",
                                    "system": "http://hl7.org/fhir/referencerange-meaning"
                                }
                            ],
                            "text": "Normal Range"
                        }
                    }
                ],
                "resourceType": "Observation",
                "status": "unknown",
                "subject": {
                    "reference": "Patient/nhs-1796238"
                },
                "text": {
                    "div": "<div xmlns=\"http://www.w3.org/1999/xhtml\">2006-07-26: Anion Gap3 SerPl-sCnc = 7 mmol/L</div>",
                    "status": "generated"
                },
                "valueQuantity": {
                    "code": "mmol/L",
                    "system": "http://unitsofmeasure.org",
                    "unit": "mmol/L",
                    "value": 7
                },
                "meta": {
                    "tag": [
                        {
                            "system": "https://smarthealthit.org/tags",
                            "code": "nhs"
                        }
                    ]
                }
            },
            "fullUrl": "/Observation/nhs-1437-lab"
        },
        {
            "request": {
                "method": "PUT",
                "url": "Observation/nhs-1438-lab"
            },
            "resource": {
                "category": [
                    {
                        "coding": [
                            {
                                "code": "laboratory",
                                "display": "Laboratory",
                                "system": "http://hl7.org/fhir/observation-category"
                            }
                        ],
                        "text": "Laboratory"
                    }
                ],
                "code": {
                    "coding": [
                        {
                            "code": "30428-7",
                            "display": "MCV RBC",
                            "system": "http://loinc.org"
                        }
                    ],
                    "text": "MCV RBC"
                },
                "effectiveDateTime": "2006-07-27",
                "id": "nhs-1438-lab",
                "identifier": [
                    {
                        "system": "http://www.bmc.nl/zorgportal/identifiers/observations",
                        "use": "official",
                        "value": "nhs-1438-lab"
                    }
                ],
                "performer": [
                    {
                        "reference": "Practitioner/nhs-Practitioner-7880378"
                    }
                ],
                "referenceRange": [
                    {
                        "high": {
                            "code": "fL",
                            "system": "http://unitsofmeasure.org",
                            "unit": "fL",
                            "value": 94
                        },
                        "low": {
                            "code": "fL",
                            "system": "http://unitsofmeasure.org",
                            "unit": "fL",
                            "value": 80
                        },
                        "type": {
                            "coding": [
                                {
                                    "code": "normal",
                                    "display": "Normal Range",
                                    "system": "http://hl7.org/fhir/referencerange-meaning"
                                }
                            ],
                            "text": "Normal Range"
                        }
                    }
                ],
                "resourceType": "Observation",
                "status": "unknown",
                "subject": {
                    "reference": "Patient/nhs-1796238"
                },
                "text": {
                    "div": "<div xmlns=\"http://www.w3.org/1999/xhtml\">2006-07-27: MCV RBC = 79 fL</div>",
                    "status": "generated"
                },
                "valueQuantity": {
                    "code": "fL",
                    "system": "http://unitsofmeasure.org",
                    "unit": "fL",
                    "value": 79
                },
                "meta": {
                    "tag": [
                        {
                            "system": "https://smarthealthit.org/tags",
                            "code": "nhs"
                        }
                    ]
                }
            },
            "fullUrl": "/Observation/nhs-1438-lab"
        },
        {
            "request": {
                "method": "PUT",
                "url": "Observation/nhs-1439-lab"
            },
            "resource": {
                "category": [
                    {
                        "coding": [
                            {
                                "code": "laboratory",
                                "display": "Laboratory",
                                "system": "http://hl7.org/fhir/observation-category"
                            }
                        ],
                        "text": "Laboratory"
                    }
                ],
                "code": {
                    "coding": [
                        {
                            "code": "10466-1",
                            "display": "Anion Gap3 SerPl-sCnc",
                            "system": "http://loinc.org"
                        }
                    ],
                    "text": "Anion Gap3 SerPl-sCnc"
                },
                "effectiveDateTime": "2006-07-27",
                "id": "nhs-1439-lab",
                "identifier": [
                    {
                        "system": "http://www.bmc.nl/zorgportal/identifiers/observations",
                        "use": "official",
                        "value": "nhs-1439-lab"
                    }
                ],
                "performer": [
                    {
                        "reference": "Practitioner/nhs-Practitioner-7880378"
                    }
                ],
                "referenceRange": [
                    {
                        "high": {
                            "code": "mmol/L",
                            "system": "http://unitsofmeasure.org",
                            "unit": "mmol/L",
                            "value": 0
                        },
                        "low": {
                            "code": "mmol/L",
                            "system": "http://unitsofmeasure.org",
                            "unit": "mmol/L",
                            "value": 0
                        },
                        "type": {
                            "coding": [
                                {
                                    "code": "normal",
                                    "display": "Normal Range",
                                    "system": "http://hl7.org/fhir/referencerange-meaning"
                                }
                            ],
                            "text": "Normal Range"
                        }
                    }
                ],
                "resourceType": "Observation",
                "status": "unknown",
                "subject": {
                    "reference": "Patient/nhs-1796238"
                },
                "text": {
                    "div": "<div xmlns=\"http://www.w3.org/1999/xhtml\">2006-07-27: Anion Gap3 SerPl-sCnc = 11 mmol/L</div>",
                    "status": "generated"
                },
                "valueQuantity": {
                    "code": "mmol/L",
                    "system": "http://unitsofmeasure.org",
                    "unit": "mmol/L",
                    "value": 11
                },
                "meta": {
                    "tag": [
                        {
                            "system": "https://smarthealthit.org/tags",
                            "code": "nhs"
                        }
                    ]
                }
            },
            "fullUrl": "/Observation/nhs-1439-lab"
        },
        {
            "request": {
                "method": "PUT",
                "url": "Observation/nhs-1440-lab"
            },
            "resource": {
                "category": [
                    {
                        "coding": [
                            {
                                "code": "laboratory",
                                "display": "Laboratory",
                                "system": "http://hl7.org/fhir/observation-category"
                            }
                        ],
                        "text": "Laboratory"
                    }
                ],
                "code": {
                    "coding": [
                        {
                            "code": "785-6",
                            "display": "MCH RBC Qn Auto",
                            "system": "http://loinc.org"
                        }
                    ],
                    "text": "MCH RBC Qn Auto"
                },
                "effectiveDateTime": "2006-07-27",
                "id": "nhs-1440-lab",
                "identifier": [
                    {
                        "system": "http://www.bmc.nl/zorgportal/identifiers/observations",
                        "use": "official",
                        "value": "nhs-1440-lab"
                    }
                ],
                "performer": [
                    {
                        "reference": "Practitioner/nhs-Practitioner-7880378"
                    }
                ],
                "referenceRange": [
                    {
                        "high": {
                            "code": "pg",
                            "system": "http://unitsofmeasure.org",
                            "unit": "pg",
                            "value": 32
                        },
                        "low": {
                            "code": "pg",
                            "system": "http://unitsofmeasure.org",
                            "unit": "pg",
                            "value": 26
                        },
                        "type": {
                            "coding": [
                                {
                                    "code": "normal",
                                    "display": "Normal Range",
                                    "system": "http://hl7.org/fhir/referencerange-meaning"
                                }
                            ],
                            "text": "Normal Range"
                        }
                    }
                ],
                "resourceType": "Observation",
                "status": "unknown",
                "subject": {
                    "reference": "Patient/nhs-1796238"
                },
                "text": {
                    "div": "<div xmlns=\"http://www.w3.org/1999/xhtml\">2006-07-27: MCH RBC Qn Auto = 26.8 pg</div>",
                    "status": "generated"
                },
                "valueQuantity": {
                    "code": "pg",
                    "system": "http://unitsofmeasure.org",
                    "unit": "pg",
                    "value": 26.8
                },
                "meta": {
                    "tag": [
                        {
                            "system": "https://smarthealthit.org/tags",
                            "code": "nhs"
                        }
                    ]
                }
            },
            "fullUrl": "/Observation/nhs-1440-lab"
        },
        {
            "request": {
                "method": "PUT",
                "url": "Observation/nhs-1441-lab"
            },
            "resource": {
                "category": [
                    {
                        "coding": [
                            {
                                "code": "laboratory",
                                "display": "Laboratory",
                                "system": "http://hl7.org/fhir/observation-category"
                            }
                        ],
                        "text": "Laboratory"
                    }
                ],
                "code": {
                    "coding": [
                        {
                            "code": "786-4",
                            "display": "MCHC RBC Auto-mCnc",
                            "system": "http://loinc.org"
                        }
                    ],
                    "text": "MCHC RBC Auto-mCnc"
                },
                "effectiveDateTime": "2006-07-27",
                "id": "nhs-1441-lab",
                "identifier": [
                    {
                        "system": "http://www.bmc.nl/zorgportal/identifiers/observations",
                        "use": "official",
                        "value": "nhs-1441-lab"
                    }
                ],
                "performer": [
                    {
                        "reference": "Practitioner/nhs-Practitioner-7880378"
                    }
                ],
                "referenceRange": [
                    {
                        "high": {
                            "code": "g/dL",
                            "system": "http://unitsofmeasure.org",
                            "unit": "g/dL",
                            "value": 36
                        },
                        "low": {
                            "code": "g/dL",
                            "system": "http://unitsofmeasure.org",
                            "unit": "g/dL",
                            "value": 32
                        },
                        "type": {
                            "coding": [
                                {
                                    "code": "normal",
                                    "display": "Normal Range",
                                    "system": "http://hl7.org/fhir/referencerange-meaning"
                                }
                            ],
                            "text": "Normal Range"
                        }
                    }
                ],
                "resourceType": "Observation",
                "status": "unknown",
                "subject": {
                    "reference": "Patient/nhs-1796238"
                },
                "text": {
                    "div": "<div xmlns=\"http://www.w3.org/1999/xhtml\">2006-07-27: MCHC RBC Auto-mCnc = 33.9 g/dL</div>",
                    "status": "generated"
                },
                "valueQuantity": {
                    "code": "g/dL",
                    "system": "http://unitsofmeasure.org",
                    "unit": "g/dL",
                    "value": 33.9
                },
                "meta": {
                    "tag": [
                        {
                            "system": "https://smarthealthit.org/tags",
                            "code": "nhs"
                        }
                    ]
                }
            },
            "fullUrl": "/Observation/nhs-1441-lab"
        },
        {
            "request": {
                "method": "PUT",
                "url": "Observation/nhs-1442-lab"
            },
            "resource": {
                "category": [
                    {
                        "coding": [
                            {
                                "code": "laboratory",
                                "display": "Laboratory",
                                "system": "http://hl7.org/fhir/observation-category"
                            }
                        ],
                        "text": "Laboratory"
                    }
                ],
                "code": {
                    "coding": [
                        {
                            "code": "17861-6",
                            "display": "Calcium SerPl-mCnc",
                            "system": "http://loinc.org"
                        }
                    ],
                    "text": "Calcium SerPl-mCnc"
                },
                "effectiveDateTime": "2006-07-27",
                "id": "nhs-1442-lab",
                "identifier": [
                    {
                        "system": "http://www.bmc.nl/zorgportal/identifiers/observations",
                        "use": "official",
                        "value": "nhs-1442-lab"
                    }
                ],
                "performer": [
                    {
                        "reference": "Practitioner/nhs-Practitioner-7880378"
                    }
                ],
                "referenceRange": [
                    {
                        "high": {
                            "code": "mg/dL",
                            "system": "http://unitsofmeasure.org",
                            "unit": "mg/dL",
                            "value": 10.5
                        },
                        "low": {
                            "code": "mg/dL",
                            "system": "http://unitsofmeasure.org",
                            "unit": "mg/dL",
                            "value": 8.5
                        },
                        "type": {
                            "coding": [
                                {
                                    "code": "normal",
                                    "display": "Normal Range",
                                    "system": "http://hl7.org/fhir/referencerange-meaning"
                                }
                            ],
                            "text": "Normal Range"
                        }
                    }
                ],
                "resourceType": "Observation",
                "status": "unknown",
                "subject": {
                    "reference": "Patient/nhs-1796238"
                },
                "text": {
                    "div": "<div xmlns=\"http://www.w3.org/1999/xhtml\">2006-07-27: Calcium SerPl-mCnc = 8.6 mg/dL</div>",
                    "status": "generated"
                },
                "valueQuantity": {
                    "code": "mg/dL",
                    "system": "http://unitsofmeasure.org",
                    "unit": "mg/dL",
                    "value": 8.6
                },
                "meta": {
                    "tag": [
                        {
                            "system": "https://smarthealthit.org/tags",
                            "code": "nhs"
                        }
                    ]
                }
            },
            "fullUrl": "/Observation/nhs-1442-lab"
        },
        {
            "request": {
                "method": "PUT",
                "url": "Observation/nhs-1443-lab"
            },
            "resource": {
                "category": [
                    {
                        "coding": [
                            {
                                "code": "laboratory",
                                "display": "Laboratory",
                                "system": "http://hl7.org/fhir/observation-category"
                            }
                        ],
                        "text": "Laboratory"
                    }
                ],
                "code": {
                    "coding": [
                        {
                            "code": "26515-7",
                            "display": "Platelet # Bld",
                            "system": "http://loinc.org"
                        }
                    ],
                    "text": "Platelet # Bld"
                },
                "effectiveDateTime": "2006-07-27",
                "id": "nhs-1443-lab",
                "identifier": [
                    {
                        "system": "http://www.bmc.nl/zorgportal/identifiers/observations",
                        "use": "official",
                        "value": "nhs-1443-lab"
                    }
                ],
                "performer": [
                    {
                        "reference": "Practitioner/nhs-Practitioner-7880378"
                    }
                ],
                "referenceRange": [
                    {
                        "high": {
                            "code": "10*3/uL",
                            "system": "http://unitsofmeasure.org",
                            "unit": "10*3/uL",
                            "value": 450
                        },
                        "low": {
                            "code": "10*3/uL",
                            "system": "http://unitsofmeasure.org",
                            "unit": "10*3/uL",
                            "value": 150
                        },
                        "type": {
                            "coding": [
                                {
                                    "code": "normal",
                                    "display": "Normal Range",
                                    "system": "http://hl7.org/fhir/referencerange-meaning"
                                }
                            ],
                            "text": "Normal Range"
                        }
                    }
                ],
                "resourceType": "Observation",
                "status": "unknown",
                "subject": {
                    "reference": "Patient/nhs-1796238"
                },
                "text": {
                    "div": "<div xmlns=\"http://www.w3.org/1999/xhtml\">2006-07-27: Platelet # Bld = 336 10*3/uL</div>",
                    "status": "generated"
                },
                "valueQuantity": {
                    "code": "10*3/uL",
                    "system": "http://unitsofmeasure.org",
                    "unit": "10*3/uL",
                    "value": 336
                },
                "meta": {
                    "tag": [
                        {
                            "system": "https://smarthealthit.org/tags",
                            "code": "nhs"
                        }
                    ]
                }
            },
            "fullUrl": "/Observation/nhs-1443-lab"
        },
        {
            "request": {
                "method": "PUT",
                "url": "Observation/nhs-1444-lab"
            },
            "resource": {
                "category": [
                    {
                        "coding": [
                            {
                                "code": "laboratory",
                                "display": "Laboratory",
                                "system": "http://hl7.org/fhir/observation-category"
                            }
                        ],
                        "text": "Laboratory"
                    }
                ],
                "code": {
                    "coding": [
                        {
                            "code": "26464-8",
                            "display": "WBC # Bld",
                            "system": "http://loinc.org"
                        }
                    ],
                    "text": "WBC # Bld"
                },
                "effectiveDateTime": "2006-07-27",
                "id": "nhs-1444-lab",
                "identifier": [
                    {
                        "system": "http://www.bmc.nl/zorgportal/identifiers/observations",
                        "use": "official",
                        "value": "nhs-1444-lab"
                    }
                ],
                "performer": [
                    {
                        "reference": "Practitioner/nhs-Practitioner-7880378"
                    }
                ],
                "referenceRange": [
                    {
                        "high": {
                            "code": "10*3/uL",
                            "system": "http://unitsofmeasure.org",
                            "unit": "10*3/uL",
                            "value": 11.5
                        },
                        "low": {
                            "code": "10*3/uL",
                            "system": "http://unitsofmeasure.org",
                            "unit": "10*3/uL",
                            "value": 4.5
                        },
                        "type": {
                            "coding": [
                                {
                                    "code": "normal",
                                    "display": "Normal Range",
                                    "system": "http://hl7.org/fhir/referencerange-meaning"
                                }
                            ],
                            "text": "Normal Range"
                        }
                    }
                ],
                "resourceType": "Observation",
                "status": "unknown",
                "subject": {
                    "reference": "Patient/nhs-1796238"
                },
                "text": {
                    "div": "<div xmlns=\"http://www.w3.org/1999/xhtml\">2006-07-27: WBC # Bld = 8.7 10*3/uL</div>",
                    "status": "generated"
                },
                "valueQuantity": {
                    "code": "10*3/uL",
                    "system": "http://unitsofmeasure.org",
                    "unit": "10*3/uL",
                    "value": 8.7
                },
                "meta": {
                    "tag": [
                        {
                            "system": "https://smarthealthit.org/tags",
                            "code": "nhs"
                        }
                    ]
                }
            },
            "fullUrl": "/Observation/nhs-1444-lab"
        },
        {
            "request": {
                "method": "PUT",
                "url": "Observation/nhs-1445-lab"
            },
            "resource": {
                "category": [
                    {
                        "coding": [
                            {
                                "code": "laboratory",
                                "display": "Laboratory",
                                "system": "http://hl7.org/fhir/observation-category"
                            }
                        ],
                        "text": "Laboratory"
                    }
                ],
                "code": {
                    "coding": [
                        {
                            "code": "789-8",
                            "display": "RBC # Bld Auto",
                            "system": "http://loinc.org"
                        }
                    ],
                    "text": "RBC # Bld Auto"
                },
                "effectiveDateTime": "2006-07-27",
                "id": "nhs-1445-lab",
                "identifier": [
                    {
                        "system": "http://www.bmc.nl/zorgportal/identifiers/observations",
                        "use": "official",
                        "value": "nhs-1445-lab"
                    }
                ],
                "performer": [
                    {
                        "reference": "Practitioner/nhs-Practitioner-7880378"
                    }
                ],
                "referenceRange": [
                    {
                        "high": {
                            "code": "10*6/uL",
                            "system": "http://unitsofmeasure.org",
                            "unit": "10*6/uL",
                            "value": 6
                        },
                        "low": {
                            "code": "10*6/uL",
                            "system": "http://unitsofmeasure.org",
                            "unit": "10*6/uL",
                            "value": 4.6
                        },
                        "type": {
                            "coding": [
                                {
                                    "code": "normal",
                                    "display": "Normal Range",
                                    "system": "http://hl7.org/fhir/referencerange-meaning"
                                }
                            ],
                            "text": "Normal Range"
                        }
                    }
                ],
                "resourceType": "Observation",
                "status": "unknown",
                "subject": {
                    "reference": "Patient/nhs-1796238"
                },
                "text": {
                    "div": "<div xmlns=\"http://www.w3.org/1999/xhtml\">2006-07-27: RBC # Bld Auto = 4.72 10*6/uL</div>",
                    "status": "generated"
                },
                "valueQuantity": {
                    "code": "10*6/uL",
                    "system": "http://unitsofmeasure.org",
                    "unit": "10*6/uL",
                    "value": 4.72
                },
                "meta": {
                    "tag": [
                        {
                            "system": "https://smarthealthit.org/tags",
                            "code": "nhs"
                        }
                    ]
                }
            },
            "fullUrl": "/Observation/nhs-1445-lab"
        },
        {
            "request": {
                "method": "PUT",
                "url": "Observation/nhs-1446-lab"
            },
            "resource": {
                "category": [
                    {
                        "coding": [
                            {
                                "code": "laboratory",
                                "display": "Laboratory",
                                "system": "http://hl7.org/fhir/observation-category"
                            }
                        ],
                        "text": "Laboratory"
                    }
                ],
                "code": {
                    "coding": [
                        {
                            "code": "2823-3",
                            "display": "Potassium SerPl-sCnc",
                            "system": "http://loinc.org"
                        }
                    ],
                    "text": "Potassium SerPl-sCnc"
                },
                "effectiveDateTime": "2006-07-27",
                "id": "nhs-1446-lab",
                "identifier": [
                    {
                        "system": "http://www.bmc.nl/zorgportal/identifiers/observations",
                        "use": "official",
                        "value": "nhs-1446-lab"
                    }
                ],
                "performer": [
                    {
                        "reference": "Practitioner/nhs-Practitioner-7880378"
                    }
                ],
                "referenceRange": [
                    {
                        "high": {
                            "code": "mmol/L",
                            "system": "http://unitsofmeasure.org",
                            "unit": "mmol/L",
                            "value": 5.5
                        },
                        "low": {
                            "code": "mmol/L",
                            "system": "http://unitsofmeasure.org",
                            "unit": "mmol/L",
                            "value": 3.5
                        },
                        "type": {
                            "coding": [
                                {
                                    "code": "normal",
                                    "display": "Normal Range",
                                    "system": "http://hl7.org/fhir/referencerange-meaning"
                                }
                            ],
                            "text": "Normal Range"
                        }
                    }
                ],
                "resourceType": "Observation",
                "status": "unknown",
                "subject": {
                    "reference": "Patient/nhs-1796238"
                },
                "text": {
                    "div": "<div xmlns=\"http://www.w3.org/1999/xhtml\">2006-07-27: Potassium SerPl-sCnc = 3.7 mmol/L</div>",
                    "status": "generated"
                },
                "valueQuantity": {
                    "code": "mmol/L",
                    "system": "http://unitsofmeasure.org",
                    "unit": "mmol/L",
                    "value": 3.7
                },
                "meta": {
                    "tag": [
                        {
                            "system": "https://smarthealthit.org/tags",
                            "code": "nhs"
                        }
                    ]
                }
            },
            "fullUrl": "/Observation/nhs-1446-lab"
        },
        {
            "request": {
                "method": "PUT",
                "url": "Observation/nhs-1447-lab"
            },
            "resource": {
                "category": [
                    {
                        "coding": [
                            {
                                "code": "laboratory",
                                "display": "Laboratory",
                                "system": "http://hl7.org/fhir/observation-category"
                            }
                        ],
                        "text": "Laboratory"
                    }
                ],
                "code": {
                    "coding": [
                        {
                            "code": "2075-0",
                            "display": "Chloride SerPl-sCnc",
                            "system": "http://loinc.org"
                        }
                    ],
                    "text": "Chloride SerPl-sCnc"
                },
                "effectiveDateTime": "2006-07-27",
                "id": "nhs-1447-lab",
                "identifier": [
                    {
                        "system": "http://www.bmc.nl/zorgportal/identifiers/observations",
                        "use": "official",
                        "value": "nhs-1447-lab"
                    }
                ],
                "performer": [
                    {
                        "reference": "Practitioner/nhs-Practitioner-7880378"
                    }
                ],
                "referenceRange": [
                    {
                        "high": {
                            "code": "mmol/L",
                            "system": "http://unitsofmeasure.org",
                            "unit": "mmol/L",
                            "value": 105
                        },
                        "low": {
                            "code": "mmol/L",
                            "system": "http://unitsofmeasure.org",
                            "unit": "mmol/L",
                            "value": 95
                        },
                        "type": {
                            "coding": [
                                {
                                    "code": "normal",
                                    "display": "Normal Range",
                                    "system": "http://hl7.org/fhir/referencerange-meaning"
                                }
                            ],
                            "text": "Normal Range"
                        }
                    }
                ],
                "resourceType": "Observation",
                "status": "unknown",
                "subject": {
                    "reference": "Patient/nhs-1796238"
                },
                "text": {
                    "div": "<div xmlns=\"http://www.w3.org/1999/xhtml\">2006-07-27: Chloride SerPl-sCnc = 95 mmol/L</div>",
                    "status": "generated"
                },
                "valueQuantity": {
                    "code": "mmol/L",
                    "system": "http://unitsofmeasure.org",
                    "unit": "mmol/L",
                    "value": 95
                },
                "meta": {
                    "tag": [
                        {
                            "system": "https://smarthealthit.org/tags",
                            "code": "nhs"
                        }
                    ]
                }
            },
            "fullUrl": "/Observation/nhs-1447-lab"
        },
        {
            "request": {
                "method": "PUT",
                "url": "Observation/nhs-1448-lab"
            },
            "resource": {
                "category": [
                    {
                        "coding": [
                            {
                                "code": "laboratory",
                                "display": "Laboratory",
                                "system": "http://hl7.org/fhir/observation-category"
                            }
                        ],
                        "text": "Laboratory"
                    }
                ],
                "code": {
                    "coding": [
                        {
                            "code": "2028-9",
                            "display": "CO2 SerPl-sCnc",
                            "system": "http://loinc.org"
                        }
                    ],
                    "text": "CO2 SerPl-sCnc"
                },
                "effectiveDateTime": "2006-07-27",
                "id": "nhs-1448-lab",
                "identifier": [
                    {
                        "system": "http://www.bmc.nl/zorgportal/identifiers/observations",
                        "use": "official",
                        "value": "nhs-1448-lab"
                    }
                ],
                "performer": [
                    {
                        "reference": "Practitioner/nhs-Practitioner-7880378"
                    }
                ],
                "referenceRange": [
                    {
                        "high": {
                            "code": "mmol/L",
                            "system": "http://unitsofmeasure.org",
                            "unit": "mmol/L",
                            "value": 29
                        },
                        "low": {
                            "code": "mmol/L",
                            "system": "http://unitsofmeasure.org",
                            "unit": "mmol/L",
                            "value": 22
                        },
                        "type": {
                            "coding": [
                                {
                                    "code": "normal",
                                    "display": "Normal Range",
                                    "system": "http://hl7.org/fhir/referencerange-meaning"
                                }
                            ],
                            "text": "Normal Range"
                        }
                    }
                ],
                "resourceType": "Observation",
                "status": "unknown",
                "subject": {
                    "reference": "Patient/nhs-1796238"
                },
                "text": {
                    "div": "<div xmlns=\"http://www.w3.org/1999/xhtml\">2006-07-27: CO2 SerPl-sCnc = 28 mmol/L</div>",
                    "status": "generated"
                },
                "valueQuantity": {
                    "code": "mmol/L",
                    "system": "http://unitsofmeasure.org",
                    "unit": "mmol/L",
                    "value": 28
                },
                "meta": {
                    "tag": [
                        {
                            "system": "https://smarthealthit.org/tags",
                            "code": "nhs"
                        }
                    ]
                }
            },
            "fullUrl": "/Observation/nhs-1448-lab"
        },
        {
            "request": {
                "method": "PUT",
                "url": "Observation/nhs-1449-lab"
            },
            "resource": {
                "category": [
                    {
                        "coding": [
                            {
                                "code": "laboratory",
                                "display": "Laboratory",
                                "system": "http://hl7.org/fhir/observation-category"
                            }
                        ],
                        "text": "Laboratory"
                    }
                ],
                "code": {
                    "coding": [
                        {
                            "code": "2951-2",
                            "display": "Sodium SerPl-sCnc",
                            "system": "http://loinc.org"
                        }
                    ],
                    "text": "Sodium SerPl-sCnc"
                },
                "effectiveDateTime": "2006-07-27",
                "id": "nhs-1449-lab",
                "identifier": [
                    {
                        "system": "http://www.bmc.nl/zorgportal/identifiers/observations",
                        "use": "official",
                        "value": "nhs-1449-lab"
                    }
                ],
                "performer": [
                    {
                        "reference": "Practitioner/nhs-Practitioner-7880378"
                    }
                ],
                "referenceRange": [
                    {
                        "high": {
                            "code": "mmol/L",
                            "system": "http://unitsofmeasure.org",
                            "unit": "mmol/L",
                            "value": 145
                        },
                        "low": {
                            "code": "mmol/L",
                            "system": "http://unitsofmeasure.org",
                            "unit": "mmol/L",
                            "value": 135
                        },
                        "type": {
                            "coding": [
                                {
                                    "code": "normal",
                                    "display": "Normal Range",
                                    "system": "http://hl7.org/fhir/referencerange-meaning"
                                }
                            ],
                            "text": "Normal Range"
                        }
                    }
                ],
                "resourceType": "Observation",
                "status": "unknown",
                "subject": {
                    "reference": "Patient/nhs-1796238"
                },
                "text": {
                    "div": "<div xmlns=\"http://www.w3.org/1999/xhtml\">2006-07-27: Sodium SerPl-sCnc = 134 mmol/L</div>",
                    "status": "generated"
                },
                "valueQuantity": {
                    "code": "mmol/L",
                    "system": "http://unitsofmeasure.org",
                    "unit": "mmol/L",
                    "value": 134
                },
                "meta": {
                    "tag": [
                        {
                            "system": "https://smarthealthit.org/tags",
                            "code": "nhs"
                        }
                    ]
                }
            },
            "fullUrl": "/Observation/nhs-1449-lab"
        },
        {
            "request": {
                "method": "PUT",
                "url": "Observation/nhs-1450-lab"
            },
            "resource": {
                "category": [
                    {
                        "coding": [
                            {
                                "code": "laboratory",
                                "display": "Laboratory",
                                "system": "http://hl7.org/fhir/observation-category"
                            }
                        ],
                        "text": "Laboratory"
                    }
                ],
                "code": {
                    "coding": [
                        {
                            "code": "28542-9",
                            "display": "PMV Bld",
                            "system": "http://loinc.org"
                        }
                    ],
                    "text": "PMV Bld"
                },
                "effectiveDateTime": "2006-07-27",
                "id": "nhs-1450-lab",
                "identifier": [
                    {
                        "system": "http://www.bmc.nl/zorgportal/identifiers/observations",
                        "use": "official",
                        "value": "nhs-1450-lab"
                    }
                ],
                "performer": [
                    {
                        "reference": "Practitioner/nhs-Practitioner-7880378"
                    }
                ],
                "referenceRange": [
                    {
                        "high": {
                            "code": "fL",
                            "system": "http://unitsofmeasure.org",
                            "unit": "fL",
                            "value": 9.6
                        },
                        "low": {
                            "code": "fL",
                            "system": "http://unitsofmeasure.org",
                            "unit": "fL",
                            "value": 6.3
                        },
                        "type": {
                            "coding": [
                                {
                                    "code": "normal",
                                    "display": "Normal Range",
                                    "system": "http://hl7.org/fhir/referencerange-meaning"
                                }
                            ],
                            "text": "Normal Range"
                        }
                    }
                ],
                "resourceType": "Observation",
                "status": "unknown",
                "subject": {
                    "reference": "Patient/nhs-1796238"
                },
                "text": {
                    "div": "<div xmlns=\"http://www.w3.org/1999/xhtml\">2006-07-27: PMV Bld = 8.9 fL</div>",
                    "status": "generated"
                },
                "valueQuantity": {
                    "code": "fL",
                    "system": "http://unitsofmeasure.org",
                    "unit": "fL",
                    "value": 8.9
                },
                "meta": {
                    "tag": [
                        {
                            "system": "https://smarthealthit.org/tags",
                            "code": "nhs"
                        }
                    ]
                }
            },
            "fullUrl": "/Observation/nhs-1450-lab"
        },
        {
            "request": {
                "method": "PUT",
                "url": "Observation/nhs-1451-lab"
            },
            "resource": {
                "category": [
                    {
                        "coding": [
                            {
                                "code": "laboratory",
                                "display": "Laboratory",
                                "system": "http://hl7.org/fhir/observation-category"
                            }
                        ],
                        "text": "Laboratory"
                    }
                ],
                "code": {
                    "coding": [
                        {
                            "code": "30385-9",
                            "display": "RDW RBC-Rto",
                            "system": "http://loinc.org"
                        }
                    ],
                    "text": "RDW RBC-Rto"
                },
                "effectiveDateTime": "2006-07-27",
                "id": "nhs-1451-lab",
                "identifier": [
                    {
                        "system": "http://www.bmc.nl/zorgportal/identifiers/observations",
                        "use": "official",
                        "value": "nhs-1451-lab"
                    }
                ],
                "performer": [
                    {
                        "reference": "Practitioner/nhs-Practitioner-7880378"
                    }
                ],
                "referenceRange": [
                    {
                        "high": {
                            "code": "%",
                            "system": "http://unitsofmeasure.org",
                            "unit": "%",
                            "value": 14.5
                        },
                        "low": {
                            "code": "%",
                            "system": "http://unitsofmeasure.org",
                            "unit": "%",
                            "value": 11.5
                        },
                        "type": {
                            "coding": [
                                {
                                    "code": "normal",
                                    "display": "Normal Range",
                                    "system": "http://hl7.org/fhir/referencerange-meaning"
                                }
                            ],
                            "text": "Normal Range"
                        }
                    }
                ],
                "resourceType": "Observation",
                "status": "unknown",
                "subject": {
                    "reference": "Patient/nhs-1796238"
                },
                "text": {
                    "div": "<div xmlns=\"http://www.w3.org/1999/xhtml\">2006-07-27: RDW RBC-Rto = 13.6 %</div>",
                    "status": "generated"
                },
                "valueQuantity": {
                    "code": "%",
                    "system": "http://unitsofmeasure.org",
                    "unit": "%",
                    "value": 13.6
                },
                "meta": {
                    "tag": [
                        {
                            "system": "https://smarthealthit.org/tags",
                            "code": "nhs"
                        }
                    ]
                }
            },
            "fullUrl": "/Observation/nhs-1451-lab"
        },
        {
            "request": {
                "method": "PUT",
                "url": "Observation/nhs-1452-lab"
            },
            "resource": {
                "category": [
                    {
                        "coding": [
                            {
                                "code": "laboratory",
                                "display": "Laboratory",
                                "system": "http://hl7.org/fhir/observation-category"
                            }
                        ],
                        "text": "Laboratory"
                    }
                ],
                "code": {
                    "coding": [
                        {
                            "code": "2345-7",
                            "display": "Glucose SerPl-mCnc",
                            "system": "http://loinc.org"
                        }
                    ],
                    "text": "Glucose SerPl-mCnc"
                },
                "effectiveDateTime": "2006-07-27",
                "id": "nhs-1452-lab",
                "identifier": [
                    {
                        "system": "http://www.bmc.nl/zorgportal/identifiers/observations",
                        "use": "official",
                        "value": "nhs-1452-lab"
                    }
                ],
                "performer": [
                    {
                        "reference": "Practitioner/nhs-Practitioner-7880378"
                    }
                ],
                "referenceRange": [
                    {
                        "high": {
                            "code": "mg/dL",
                            "system": "http://unitsofmeasure.org",
                            "unit": "mg/dL",
                            "value": 109
                        },
                        "low": {
                            "code": "mg/dL",
                            "system": "http://unitsofmeasure.org",
                            "unit": "mg/dL",
                            "value": 70
                        },
                        "type": {
                            "coding": [
                                {
                                    "code": "normal",
                                    "display": "Normal Range",
                                    "system": "http://hl7.org/fhir/referencerange-meaning"
                                }
                            ],
                            "text": "Normal Range"
                        }
                    }
                ],
                "resourceType": "Observation",
                "status": "unknown",
                "subject": {
                    "reference": "Patient/nhs-1796238"
                },
                "text": {
                    "div": "<div xmlns=\"http://www.w3.org/1999/xhtml\">2006-07-27: Glucose SerPl-mCnc = 122 mg/dL</div>",
                    "status": "generated"
                },
                "valueQuantity": {
                    "code": "mg/dL",
                    "system": "http://unitsofmeasure.org",
                    "unit": "mg/dL",
                    "value": 122
                },
                "meta": {
                    "tag": [
                        {
                            "system": "https://smarthealthit.org/tags",
                            "code": "nhs"
                        }
                    ]
                }
            },
            "fullUrl": "/Observation/nhs-1452-lab"
        },
        {
            "request": {
                "method": "PUT",
                "url": "Observation/nhs-1453-lab"
            },
            "resource": {
                "category": [
                    {
                        "coding": [
                            {
                                "code": "laboratory",
                                "display": "Laboratory",
                                "system": "http://hl7.org/fhir/observation-category"
                            }
                        ],
                        "text": "Laboratory"
                    }
                ],
                "code": {
                    "coding": [
                        {
                            "code": "3094-0",
                            "display": "BUN SerPl-mCnc",
                            "system": "http://loinc.org"
                        }
                    ],
                    "text": "BUN SerPl-mCnc"
                },
                "effectiveDateTime": "2006-07-27",
                "id": "nhs-1453-lab",
                "identifier": [
                    {
                        "system": "http://www.bmc.nl/zorgportal/identifiers/observations",
                        "use": "official",
                        "value": "nhs-1453-lab"
                    }
                ],
                "performer": [
                    {
                        "reference": "Practitioner/nhs-Practitioner-7880378"
                    }
                ],
                "referenceRange": [
                    {
                        "high": {
                            "code": "mg/dL",
                            "system": "http://unitsofmeasure.org",
                            "unit": "mg/dL",
                            "value": 20
                        },
                        "low": {
                            "code": "mg/dL",
                            "system": "http://unitsofmeasure.org",
                            "unit": "mg/dL",
                            "value": 5
                        },
                        "type": {
                            "coding": [
                                {
                                    "code": "normal",
                                    "display": "Normal Range",
                                    "system": "http://hl7.org/fhir/referencerange-meaning"
                                }
                            ],
                            "text": "Normal Range"
                        }
                    }
                ],
                "resourceType": "Observation",
                "status": "unknown",
                "subject": {
                    "reference": "Patient/nhs-1796238"
                },
                "text": {
                    "div": "<div xmlns=\"http://www.w3.org/1999/xhtml\">2006-07-27: BUN SerPl-mCnc = 12 mg/dL</div>",
                    "status": "generated"
                },
                "valueQuantity": {
                    "code": "mg/dL",
                    "system": "http://unitsofmeasure.org",
                    "unit": "mg/dL",
                    "value": 12
                },
                "meta": {
                    "tag": [
                        {
                            "system": "https://smarthealthit.org/tags",
                            "code": "nhs"
                        }
                    ]
                }
            },
            "fullUrl": "/Observation/nhs-1453-lab"
        },
        {
            "request": {
                "method": "PUT",
                "url": "Observation/nhs-1454-lab"
            },
            "resource": {
                "category": [
                    {
                        "coding": [
                            {
                                "code": "laboratory",
                                "display": "Laboratory",
                                "system": "http://hl7.org/fhir/observation-category"
                            }
                        ],
                        "text": "Laboratory"
                    }
                ],
                "code": {
                    "coding": [
                        {
                            "code": "718-7",
                            "display": "Hgb Bld-mCnc",
                            "system": "http://loinc.org"
                        }
                    ],
                    "text": "Hgb Bld-mCnc"
                },
                "effectiveDateTime": "2006-07-27",
                "id": "nhs-1454-lab",
                "identifier": [
                    {
                        "system": "http://www.bmc.nl/zorgportal/identifiers/observations",
                        "use": "official",
                        "value": "nhs-1454-lab"
                    }
                ],
                "performer": [
                    {
                        "reference": "Practitioner/nhs-Practitioner-7880378"
                    }
                ],
                "referenceRange": [
                    {
                        "high": {
                            "code": "g/dL",
                            "system": "http://unitsofmeasure.org",
                            "unit": "g/dL",
                            "value": 18
                        },
                        "low": {
                            "code": "g/dL",
                            "system": "http://unitsofmeasure.org",
                            "unit": "g/dL",
                            "value": 14
                        },
                        "type": {
                            "coding": [
                                {
                                    "code": "normal",
                                    "display": "Normal Range",
                                    "system": "http://hl7.org/fhir/referencerange-meaning"
                                }
                            ],
                            "text": "Normal Range"
                        }
                    }
                ],
                "resourceType": "Observation",
                "status": "unknown",
                "subject": {
                    "reference": "Patient/nhs-1796238"
                },
                "text": {
                    "div": "<div xmlns=\"http://www.w3.org/1999/xhtml\">2006-07-27: Hgb Bld-mCnc = 12.6 g/dL</div>",
                    "status": "generated"
                },
                "valueQuantity": {
                    "code": "g/dL",
                    "system": "http://unitsofmeasure.org",
                    "unit": "g/dL",
                    "value": 12.6
                },
                "meta": {
                    "tag": [
                        {
                            "system": "https://smarthealthit.org/tags",
                            "code": "nhs"
                        }
                    ]
                }
            },
            "fullUrl": "/Observation/nhs-1454-lab"
        },
        {
            "request": {
                "method": "PUT",
                "url": "Observation/nhs-1455-lab"
            },
            "resource": {
                "category": [
                    {
                        "coding": [
                            {
                                "code": "laboratory",
                                "display": "Laboratory",
                                "system": "http://hl7.org/fhir/observation-category"
                            }
                        ],
                        "text": "Laboratory"
                    }
                ],
                "code": {
                    "coding": [
                        {
                            "code": "2339-0",
                            "display": "Glucose Bld-mCnc",
                            "system": "http://loinc.org"
                        }
                    ],
                    "text": "Glucose Bld-mCnc"
                },
                "effectiveDateTime": "2006-07-27",
                "id": "nhs-1455-lab",
                "identifier": [
                    {
                        "system": "http://www.bmc.nl/zorgportal/identifiers/observations",
                        "use": "official",
                        "value": "nhs-1455-lab"
                    }
                ],
                "performer": [
                    {
                        "reference": "Practitioner/nhs-Practitioner-7880378"
                    }
                ],
                "referenceRange": [
                    {
                        "high": {
                            "code": "mg/dL",
                            "system": "http://unitsofmeasure.org",
                            "unit": "mg/dL",
                            "value": 109
                        },
                        "low": {
                            "code": "mg/dL",
                            "system": "http://unitsofmeasure.org",
                            "unit": "mg/dL",
                            "value": 70
                        },
                        "type": {
                            "coding": [
                                {
                                    "code": "normal",
                                    "display": "Normal Range",
                                    "system": "http://hl7.org/fhir/referencerange-meaning"
                                }
                            ],
                            "text": "Normal Range"
                        }
                    }
                ],
                "resourceType": "Observation",
                "status": "unknown",
                "subject": {
                    "reference": "Patient/nhs-1796238"
                },
                "text": {
                    "div": "<div xmlns=\"http://www.w3.org/1999/xhtml\">2006-07-27: Glucose Bld-mCnc = 147 mg/dL</div>",
                    "status": "generated"
                },
                "valueQuantity": {
                    "code": "mg/dL",
                    "system": "http://unitsofmeasure.org",
                    "unit": "mg/dL",
                    "value": 147
                },
                "meta": {
                    "tag": [
                        {
                            "system": "https://smarthealthit.org/tags",
                            "code": "nhs"
                        }
                    ]
                }
            },
            "fullUrl": "/Observation/nhs-1455-lab"
        },
        {
            "request": {
                "method": "PUT",
                "url": "Observation/nhs-1456-lab"
            },
            "resource": {
                "category": [
                    {
                        "coding": [
                            {
                                "code": "laboratory",
                                "display": "Laboratory",
                                "system": "http://hl7.org/fhir/observation-category"
                            }
                        ],
                        "text": "Laboratory"
                    }
                ],
                "code": {
                    "coding": [
                        {
                            "code": "2160-0",
                            "display": "Creat SerPl-mCnc",
                            "system": "http://loinc.org"
                        }
                    ],
                    "text": "Creat SerPl-mCnc"
                },
                "effectiveDateTime": "2006-07-27",
                "id": "nhs-1456-lab",
                "identifier": [
                    {
                        "system": "http://www.bmc.nl/zorgportal/identifiers/observations",
                        "use": "official",
                        "value": "nhs-1456-lab"
                    }
                ],
                "performer": [
                    {
                        "reference": "Practitioner/nhs-Practitioner-7880378"
                    }
                ],
                "referenceRange": [
                    {
                        "high": {
                            "code": "mg/dL",
                            "system": "http://unitsofmeasure.org",
                            "unit": "mg/dL",
                            "value": 1.4
                        },
                        "low": {
                            "code": "mg/dL",
                            "system": "http://unitsofmeasure.org",
                            "unit": "mg/dL",
                            "value": 0.8
                        },
                        "type": {
                            "coding": [
                                {
                                    "code": "normal",
                                    "display": "Normal Range",
                                    "system": "http://hl7.org/fhir/referencerange-meaning"
                                }
                            ],
                            "text": "Normal Range"
                        }
                    }
                ],
                "resourceType": "Observation",
                "status": "unknown",
                "subject": {
                    "reference": "Patient/nhs-1796238"
                },
                "text": {
                    "div": "<div xmlns=\"http://www.w3.org/1999/xhtml\">2006-07-27: Creat SerPl-mCnc = 0.9 mg/dL</div>",
                    "status": "generated"
                },
                "valueQuantity": {
                    "code": "mg/dL",
                    "system": "http://unitsofmeasure.org",
                    "unit": "mg/dL",
                    "value": 0.9
                },
                "meta": {
                    "tag": [
                        {
                            "system": "https://smarthealthit.org/tags",
                            "code": "nhs"
                        }
                    ]
                }
            },
            "fullUrl": "/Observation/nhs-1456-lab"
        },
        {
            "request": {
                "method": "PUT",
                "url": "MedicationRequest/nhs-MedicationRequest-208"
            },
            "resource": {
                "dispenseRequest": {
                    "expectedSupplyDuration": {
                        "code": "d",
                        "system": "http://unitsofmeasure.org",
                        "unit": "days",
                        "value": 25
                    },
                    "numberOfRepeatsAllowed": 1,
                    "quantity": {
                        "code": "{puff}",
                        "system": "http://unitsofmeasure.org",
                        "unit": "{puff}",
                        "value": 1
                    }
                },
                "dosageInstruction": [
                    {
                        "asNeededBoolean": true,
                        "doseQuantity": {
                            "code": "{puff}",
                            "system": "http://unitsofmeasure.org",
                            "unit": "{puff}",
                            "value": 2
                        },
                        "text": "2 puffs qid prn SOB",
                        "timing": {
                            "repeat": {
                                "boundsPeriod": {
                                    "start": "2009-06-09"
                                },
                                "frequency": 4,
                                "period": 1,
                                "periodUnit": "d"
                            }
                        }
                    }
                ],
                "id": "nhs-MedicationRequest-208",
                "intent": "order",
                "medicationCodeableConcept": {
                    "coding": [
                        {
                            "code": "745752",
                            "display": "200 ACTUAT Albuterol 0.09 MG/ACTUAT Metered Dose Inhaler [ProAir HFA]",
                            "system": "http://www.nlm.nih.gov/research/umls/rxnorm"
                        }
                    ],
                    "text": "200 ACTUAT Albuterol 0.09 MG/ACTUAT Metered Dose Inhaler [ProAir HFA]"
                },
                "resourceType": "MedicationRequest",
                "status": "active",
                "subject": {
                    "reference": "Patient/nhs-1796238"
                },
                "text": {
                    "div": "<div xmlns=\"http://www.w3.org/1999/xhtml\">200 ACTUAT Albuterol 0.09 MG/ACTUAT Metered Dose Inhaler [ProAir HFA] (rxnorm: 745752)</div>",
                    "status": "generated"
                },
                "meta": {
                    "tag": [
                        {
                            "system": "https://smarthealthit.org/tags",
                            "code": "nhs"
                        }
                    ]
                }
            },
            "fullUrl": "/MedicationRequest/nhs-MedicationRequest-208"
        },
        {
            "request": {
                "method": "PUT",
                "url": "MedicationDispense/nhs-MedicationDispense-251"
            },
            "resource": {
                "authorizingPrescription": [
                    {
                        "reference": "MedicationRequest/nhs-MedicationRequest-208"
                    }
                ],
                "daysSupply": {
                    "code": "d",
                    "system": "http://unitsofmeasure.org",
                    "unit": "days",
                    "value": 30
                },
                "id": "nhs-MedicationDispense-251",
                "medicationCodeableConcept": {
                    "coding": [
                        {
                            "code": "745752",
                            "display": "200 ACTUAT Albuterol 0.09 MG/ACTUAT Metered Dose Inhaler [ProAir HFA]",
                            "system": "http://www.nlm.nih.gov/research/umls/rxnorm"
                        }
                    ],
                    "text": "200 ACTUAT Albuterol 0.09 MG/ACTUAT Metered Dose Inhaler [ProAir HFA]"
                },
                "quantity": {
                    "code": "{tablets}",
                    "system": "http://unitsofmeasure.org",
                    "unit": "tablets",
                    "value": 8
                },
                "resourceType": "MedicationDispense",
                "status": "completed",
                "subject": {
                    "reference": "Patient/nhs-1796238"
                },
                "text": {
                    "div": "<div xmlns=\"http://www.w3.org/1999/xhtml\">Dispensed 8 tablets = 30 day supply of 200 ACTUAT Albuterol 0.09 MG/ACTUAT Metered Dose Inhaler [ProAir HFA]</div>",
                    "status": "generated"
                },
                "whenHandedOver": "2009-08-30",
                "meta": {
                    "tag": [
                        {
                            "system": "https://smarthealthit.org/tags",
                            "code": "nhs"
                        }
                    ]
                }
            },
            "fullUrl": "/MedicationDispense/nhs-MedicationDispense-251"
        },
        {
            "request": {
                "method": "PUT",
                "url": "MedicationDispense/nhs-MedicationDispense-249"
            },
            "resource": {
                "authorizingPrescription": [
                    {
                        "reference": "MedicationRequest/nhs-MedicationRequest-208"
                    }
                ],
                "daysSupply": {
                    "code": "d",
                    "system": "http://unitsofmeasure.org",
                    "unit": "days",
                    "value": 30
                },
                "id": "nhs-MedicationDispense-249",
                "medicationCodeableConcept": {
                    "coding": [
                        {
                            "code": "745752",
                            "display": "200 ACTUAT Albuterol 0.09 MG/ACTUAT Metered Dose Inhaler [ProAir HFA]",
                            "system": "http://www.nlm.nih.gov/research/umls/rxnorm"
                        }
                    ],
                    "text": "200 ACTUAT Albuterol 0.09 MG/ACTUAT Metered Dose Inhaler [ProAir HFA]"
                },
                "quantity": {
                    "code": "{tablets}",
                    "system": "http://unitsofmeasure.org",
                    "unit": "tablets",
                    "value": 8
                },
                "resourceType": "MedicationDispense",
                "status": "completed",
                "subject": {
                    "reference": "Patient/nhs-1796238"
                },
                "text": {
                    "div": "<div xmlns=\"http://www.w3.org/1999/xhtml\">Dispensed 8 tablets = 30 day supply of 200 ACTUAT Albuterol 0.09 MG/ACTUAT Metered Dose Inhaler [ProAir HFA]</div>",
                    "status": "generated"
                },
                "whenHandedOver": "2009-06-09",
                "meta": {
                    "tag": [
                        {
                            "system": "https://smarthealthit.org/tags",
                            "code": "nhs"
                        }
                    ]
                }
            },
            "fullUrl": "/MedicationDispense/nhs-MedicationDispense-249"
        },
        {
            "request": {
                "method": "PUT",
                "url": "MedicationDispense/nhs-MedicationDispense-250"
            },
            "resource": {
                "authorizingPrescription": [
                    {
                        "reference": "MedicationRequest/nhs-MedicationRequest-208"
                    }
                ],
                "daysSupply": {
                    "code": "d",
                    "system": "http://unitsofmeasure.org",
                    "unit": "days",
                    "value": 30
                },
                "id": "nhs-MedicationDispense-250",
                "medicationCodeableConcept": {
                    "coding": [
                        {
                            "code": "745752",
                            "display": "200 ACTUAT Albuterol 0.09 MG/ACTUAT Metered Dose Inhaler [ProAir HFA]",
                            "system": "http://www.nlm.nih.gov/research/umls/rxnorm"
                        }
                    ],
                    "text": "200 ACTUAT Albuterol 0.09 MG/ACTUAT Metered Dose Inhaler [ProAir HFA]"
                },
                "quantity": {
                    "code": "{tablets}",
                    "system": "http://unitsofmeasure.org",
                    "unit": "tablets",
                    "value": 8
                },
                "resourceType": "MedicationDispense",
                "status": "completed",
                "subject": {
                    "reference": "Patient/nhs-1796238"
                },
                "text": {
                    "div": "<div xmlns=\"http://www.w3.org/1999/xhtml\">Dispensed 8 tablets = 30 day supply of 200 ACTUAT Albuterol 0.09 MG/ACTUAT Metered Dose Inhaler [ProAir HFA]</div>",
                    "status": "generated"
                },
                "whenHandedOver": "2009-08-04",
                "meta": {
                    "tag": [
                        {
                            "system": "https://smarthealthit.org/tags",
                            "code": "nhs"
                        }
                    ]
                }
            },
            "fullUrl": "/MedicationDispense/nhs-MedicationDispense-250"
        },
        {
            "request": {
                "method": "PUT",
                "url": "MedicationRequest/nhs-MedicationRequest-209"
            },
            "resource": {
                "dispenseRequest": {
                    "expectedSupplyDuration": {
                        "code": "d",
                        "system": "http://unitsofmeasure.org",
                        "unit": "days",
                        "value": 6
                    },
                    "numberOfRepeatsAllowed": 1,
                    "quantity": {
                        "code": "{tablet}",
                        "system": "http://unitsofmeasure.org",
                        "unit": "{tablet}",
                        "value": 6
                    }
                },
                "dosageInstruction": [
                    {
                        "asNeededBoolean": true,
                        "doseQuantity": {
                            "code": "{tablet}",
                            "system": "http://unitsofmeasure.org",
                            "unit": "{tablet}",
                            "value": 1
                        },
                        "text": "1 daily prn ED",
                        "timing": {
                            "repeat": {
                                "boundsPeriod": {
                                    "start": "2009-08-10"
                                },
                                "frequency": 1,
                                "period": 1,
                                "periodUnit": "d"
                            }
                        }
                    }
                ],
                "id": "nhs-MedicationRequest-209",
                "intent": "order",
                "medicationCodeableConcept": {
                    "coding": [
                        {
                            "code": "213271",
                            "display": "sildenafil 100 MG Oral Tablet [Viagra]",
                            "system": "http://www.nlm.nih.gov/research/umls/rxnorm"
                        }
                    ],
                    "text": "sildenafil 100 MG Oral Tablet [Viagra]"
                },
                "resourceType": "MedicationRequest",
                "status": "active",
                "subject": {
                    "reference": "Patient/nhs-1796238"
                },
                "text": {
                    "div": "<div xmlns=\"http://www.w3.org/1999/xhtml\">sildenafil 100 MG Oral Tablet [Viagra] (rxnorm: 213271)</div>",
                    "status": "generated"
                },
                "meta": {
                    "tag": [
                        {
                            "system": "https://smarthealthit.org/tags",
                            "code": "nhs"
                        }
                    ]
                }
            },
            "fullUrl": "/MedicationRequest/nhs-MedicationRequest-209"
        },
        {
            "request": {
                "method": "PUT",
                "url": "MedicationDispense/nhs-MedicationDispense-253"
            },
            "resource": {
                "authorizingPrescription": [
                    {
                        "reference": "MedicationRequest/nhs-MedicationRequest-209"
                    }
                ],
                "daysSupply": {
                    "code": "d",
                    "system": "http://unitsofmeasure.org",
                    "unit": "days",
                    "value": 6
                },
                "id": "nhs-MedicationDispense-253",
                "medicationCodeableConcept": {
                    "coding": [
                        {
                            "code": "213271",
                            "display": "sildenafil 100 MG Oral Tablet [Viagra]",
                            "system": "http://www.nlm.nih.gov/research/umls/rxnorm"
                        }
                    ],
                    "text": "sildenafil 100 MG Oral Tablet [Viagra]"
                },
                "quantity": {
                    "code": "{tablets}",
                    "system": "http://unitsofmeasure.org",
                    "unit": "tablets",
                    "value": 6
                },
                "resourceType": "MedicationDispense",
                "status": "completed",
                "subject": {
                    "reference": "Patient/nhs-1796238"
                },
                "text": {
                    "div": "<div xmlns=\"http://www.w3.org/1999/xhtml\">Dispensed 6 tablets = 6 day supply of sildenafil 100 MG Oral Tablet [Viagra]</div>",
                    "status": "generated"
                },
                "whenHandedOver": "2009-08-30",
                "meta": {
                    "tag": [
                        {
                            "system": "https://smarthealthit.org/tags",
                            "code": "nhs"
                        }
                    ]
                }
            },
            "fullUrl": "/MedicationDispense/nhs-MedicationDispense-253"
        },
        {
            "request": {
                "method": "PUT",
                "url": "MedicationDispense/nhs-MedicationDispense-252"
            },
            "resource": {
                "authorizingPrescription": [
                    {
                        "reference": "MedicationRequest/nhs-MedicationRequest-209"
                    }
                ],
                "daysSupply": {
                    "code": "d",
                    "system": "http://unitsofmeasure.org",
                    "unit": "days",
                    "value": 6
                },
                "id": "nhs-MedicationDispense-252",
                "medicationCodeableConcept": {
                    "coding": [
                        {
                            "code": "213271",
                            "display": "sildenafil 100 MG Oral Tablet [Viagra]",
                            "system": "http://www.nlm.nih.gov/research/umls/rxnorm"
                        }
                    ],
                    "text": "sildenafil 100 MG Oral Tablet [Viagra]"
                },
                "quantity": {
                    "code": "{tablets}",
                    "system": "http://unitsofmeasure.org",
                    "unit": "tablets",
                    "value": 6
                },
                "resourceType": "MedicationDispense",
                "status": "completed",
                "subject": {
                    "reference": "Patient/nhs-1796238"
                },
                "text": {
                    "div": "<div xmlns=\"http://www.w3.org/1999/xhtml\">Dispensed 6 tablets = 6 day supply of sildenafil 100 MG Oral Tablet [Viagra]</div>",
                    "status": "generated"
                },
                "whenHandedOver": "2009-08-10",
                "meta": {
                    "tag": [
                        {
                            "system": "https://smarthealthit.org/tags",
                            "code": "nhs"
                        }
                    ]
                }
            },
            "fullUrl": "/MedicationDispense/nhs-MedicationDispense-252"
        },
        {
            "request": {
                "method": "PUT",
                "url": "Condition/nhs-Condition-147"
            },
            "resource": {
                "clinicalStatus": "active",
                "code": {
                    "coding": [
                        {
                            "code": "409622000",
                            "display": "Acute respiratory failure",
                            "system": "http://snomed.info/sct"
                        }
                    ],
                    "text": "Acute respiratory failure"
                },
                "id": "nhs-Condition-147",
                "onsetDateTime": "2006-07-17",
                "resourceType": "Condition",
                "subject": {
                    "reference": "Patient/nhs-1796238"
                },
                "text": {
                    "div": "<div xmlns=\"http://www.w3.org/1999/xhtml\">Acute respiratory failure</div>",
                    "status": "generated"
                },
                "verificationStatus": "confirmed",
                "meta": {
                    "tag": [
                        {
                            "system": "https://smarthealthit.org/tags",
                            "code": "nhs"
                        }
                    ]
                }
            },
            "fullUrl": "/Condition/nhs-Condition-147"
        },
        {
            "request": {
                "method": "PUT",
                "url": "Condition/nhs-Condition-148"
            },
            "resource": {
                "clinicalStatus": "active",
                "code": {
                    "coding": [
                        {
                            "code": "195949008",
                            "display": "Chronic asthmatic bronchitis",
                            "system": "http://snomed.info/sct"
                        }
                    ],
                    "text": "Chronic asthmatic bronchitis"
                },
                "id": "nhs-Condition-148",
                "onsetDateTime": "2006-07-17",
                "resourceType": "Condition",
                "subject": {
                    "reference": "Patient/nhs-1796238"
                },
                "text": {
                    "div": "<div xmlns=\"http://www.w3.org/1999/xhtml\">Chronic asthmatic bronchitis</div>",
                    "status": "generated"
                },
                "verificationStatus": "confirmed",
                "meta": {
                    "tag": [
                        {
                            "system": "https://smarthealthit.org/tags",
                            "code": "nhs"
                        }
                    ]
                }
            },
            "fullUrl": "/Condition/nhs-Condition-148"
        },
        {
            "request": {
                "method": "PUT",
                "url": "Condition/nhs-Condition-149"
            },
            "resource": {
                "clinicalStatus": "active",
                "code": {
                    "coding": [
                        {
                            "code": "34095006",
                            "display": "Dehydration",
                            "system": "http://snomed.info/sct"
                        }
                    ],
                    "text": "Dehydration"
                },
                "id": "nhs-Condition-149",
                "onsetDateTime": "2006-07-17",
                "resourceType": "Condition",
                "subject": {
                    "reference": "Patient/nhs-1796238"
                },
                "text": {
                    "div": "<div xmlns=\"http://www.w3.org/1999/xhtml\">Dehydration</div>",
                    "status": "generated"
                },
                "verificationStatus": "confirmed",
                "meta": {
                    "tag": [
                        {
                            "system": "https://smarthealthit.org/tags",
                            "code": "nhs"
                        }
                    ]
                }
            },
            "fullUrl": "/Condition/nhs-Condition-149"
        },
        {
            "request": {
                "method": "PUT",
                "url": "Condition/nhs-Condition-150"
            },
            "resource": {
                "clinicalStatus": "active",
                "code": {
                    "coding": [
                        {
                            "code": "44054006",
                            "display": "Diabetes mellitus type 2",
                            "system": "http://snomed.info/sct"
                        }
                    ],
                    "text": "Diabetes mellitus type 2"
                },
                "id": "nhs-Condition-150",
                "onsetDateTime": "2006-07-17",
                "resourceType": "Condition",
                "subject": {
                    "reference": "Patient/nhs-1796238"
                },
                "text": {
                    "div": "<div xmlns=\"http://www.w3.org/1999/xhtml\">Diabetes mellitus type 2</div>",
                    "status": "generated"
                },
                "verificationStatus": "confirmed",
                "meta": {
                    "tag": [
                        {
                            "system": "https://smarthealthit.org/tags",
                            "code": "nhs"
                        }
                    ]
                }
            },
            "fullUrl": "/Condition/nhs-Condition-150"
        },
        {
            "request": {
                "method": "PUT",
                "url": "Condition/nhs-Condition-151"
            },
            "resource": {
                "clinicalStatus": "active",
                "code": {
                    "coding": [
                        {
                            "code": "38341003",
                            "display": "Essential hypertension",
                            "system": "http://snomed.info/sct"
                        }
                    ],
                    "text": "Essential hypertension"
                },
                "id": "nhs-Condition-151",
                "onsetDateTime": "2006-07-17",
                "resourceType": "Condition",
                "subject": {
                    "reference": "Patient/nhs-1796238"
                },
                "text": {
                    "div": "<div xmlns=\"http://www.w3.org/1999/xhtml\">Essential hypertension</div>",
                    "status": "generated"
                },
                "verificationStatus": "confirmed",
                "meta": {
                    "tag": [
                        {
                            "system": "https://smarthealthit.org/tags",
                            "code": "nhs"
                        }
                    ]
                }
            },
            "fullUrl": "/Condition/nhs-Condition-151"
        },
        {
            "request": {
                "method": "PUT",
                "url": "Condition/nhs-Condition-152"
            },
            "resource": {
                "clinicalStatus": "active",
                "code": {
                    "coding": [
                        {
                            "code": "55525008",
                            "display": "Paralytic ileus",
                            "system": "http://snomed.info/sct"
                        }
                    ],
                    "text": "Paralytic ileus"
                },
                "id": "nhs-Condition-152",
                "onsetDateTime": "2006-07-17",
                "resourceType": "Condition",
                "subject": {
                    "reference": "Patient/nhs-1796238"
                },
                "text": {
                    "div": "<div xmlns=\"http://www.w3.org/1999/xhtml\">Paralytic ileus</div>",
                    "status": "generated"
                },
                "verificationStatus": "confirmed",
                "meta": {
                    "tag": [
                        {
                            "system": "https://smarthealthit.org/tags",
                            "code": "nhs"
                        }
                    ]
                }
            },
            "fullUrl": "/Condition/nhs-Condition-152"
        },
        {
            "request": {
                "method": "PUT",
                "url": "Observation/nhs-smokingstatus-30"
            },
            "resource": {
                "category": [
                    {
                        "coding": [
                            {
                                "code": "social-history",
                                "display": "Social History",
                                "system": "http://hl7.org/fhir/observation-category"
                            }
                        ],
                        "text": "Social History"
                    }
                ],
                "code": {
                    "coding": [
                        {
                            "code": "72166-2",
                            "display": "Tobacco smoking status",
                            "system": "http://loinc.org"
                        }
                    ],
                    "text": "Tobacco smoking status"
                },
                "effectiveDateTime": "2016-10-30",
                "id": "nhs-smokingstatus-30",
                "identifier": [
                    {
                        "system": "http://www.bmc.nl/zorgportal/identifiers/observations",
                        "use": "official",
                        "value": "nhs-30"
                    }
                ],
                "performer": [
                    {
                        "reference": "Practitioner/nhs-Practitioner-7880378"
                    }
                ],
                "resourceType": "Observation",
                "status": "final",
                "subject": {
                    "reference": "Patient/nhs-1796238"
                },
                "text": {
                    "div": "<div xmlns=\"http://www.w3.org/1999/xhtml\">Tobacco smoking status: Former smoker</div>",
                    "status": "generated"
                },
                "valueCodeableConcept": {
                    "coding": [
                        {
                            "code": "8517006",
                            "display": "Former smoker",
                            "system": "http://snomed.info/sct"
                        }
                    ],
                    "text": "Former smoker"
                },
                "meta": {
                    "tag": [
                        {
                            "system": "https://smarthealthit.org/tags",
                            "code": "nhs"
                        }
                    ]
                }
            },
            "fullUrl": "/Observation/nhs-smokingstatus-30"
        },
        {
            "request": {
                "method": "PUT",
                "url": "AllergyIntolerance/nhs-AllergyIntolerance-42"
            },
            "resource": {
                "assertedDate": "2000",
                "clinicalStatus": "active",
                "code": {
                    "coding": [
                        {
                            "code": "716186003",
                            "display": "No known allergies",
                            "system": "http://snomed.info/sct"
                        }
                    ],
                    "text": "No known allergies"
                },
                "id": "nhs-AllergyIntolerance-42",
                "patient": {
                    "reference": "Patient/nhs-1796238"
                },
                "resourceType": "AllergyIntolerance",
                "text": {
                    "div": "<div xmlns=\"http://www.w3.org/1999/xhtml\">No known allergies</div>",
                    "status": "generated"
                },
                "verificationStatus": "confirmed",
                "meta": {
                    "tag": [
                        {
                            "system": "https://smarthealthit.org/tags",
                            "code": "nhs"
                        }
                    ]
                }
            },
            "fullUrl": "/AllergyIntolerance/nhs-AllergyIntolerance-42"
        }
    ],
    "resourceType": "Bundle",
    "type": "transaction"
}